Part protocol
Network name;Part_Maxymos_2_MP-001_2017-03-14_14-18-05_RMS_bl_trans150obr_tepy_000018_OK.csv
Protocol version;3.01.00






Result information
Date;2017/03/14
Time;14:18:05
Cycle number;18
Total result;OK
Triggered switch signals
Part serial number;RMS_bl_trans150obr_tepy_000018
Measuring program name;Bl_trans
Measuring program number;1
Zero X offset;0.000;mm
Tara Y offset;0.0000;RMS









Process values - curve related
Block X;12.000;mm;XMIN-X;7.643;mm
Block Y;0.0600;RMS;XMIN-Y;0.0321;RMS
Ref X;-;mm;XMAX-X;12.000;mm
Peak-peak X;4.357;mm;XMAX-Y;0.0600;RMS
Peak-peak Y;0.7838;RMS;YMIN-X;11.872;mm
;;;YMIN-Y;0.0271;RMS
;;;YMAX-X;8.490;mm
;;;YMAX-Y;0.8108;RMS

Process values - EO related;Result;Entry;Exit;XMIN-X;XMIN-Y;XMAX-X;XMAX-Y;YMIN-Y;YMIN-X;YMAX-Y;YMAX-X;Calculated result;NOK cause;Violation X;Violation Y;Ref X;Ref Y;Switch force;Y-Diff;X-Diff;Force deviation ratio;Click ratio;Contact edge
;;;;mm;RMS;mm;RMS;RMS;mm;RMS;mm;-;-;-;-;-;-;-;-;-;-;-;-;
EO-01;OK;8.218;;;;;;;;;;;;;;;;
EO-02;OK;;;;;;;;;;;0.2713;;;;;;
EO-03;OK;;;;;;;;;;;0.7838;;;;;;
EO-04;None;
EO-05;None;
EO-06;None;
EO-07;None;
EO-08;None;
EO-09;None;
EO-10;None;


















Evaluation objects settings;Reaction;X reference;Y-Reference;XMin;XMax;YMin;YMax;Entry;Exit;Curve part;Catch zone X;Catch zone Y;EO Name;EO description;Re-entry ignored;Generate statistics;X-Hysteresis;Y-Hysteresis;Down sampling rate;Calc limit min;Calc limit max;Grad limit min;Grad limit max;Hyst limit min;Hyst limit max;Speed limit min;Speed limit max;Time limit min;Time limit max;Is curve inside box;GetRef type;CalcInput1 | dx;CalcInput2 | dx;Calc operation;Average limit min;Average limit max;Break max bending;Visualization offset X;Visualization offset Y;-;-;-
EO-01;LINE-X;ABSOLUTE;ABSOLUTE;8.037;8.473;0.1000;;BELOW;NONE;ANY;+50%;+0%;;;FALSE;TRUE;0.0;0.0;1;;;;;;;;;;;;;;;;;;;0.000;0.0000;;;
EO-02;CALC;ABSOLUTE;ABSOLUTE;-0.409;;1.5166;;NONE;NONE;ANY;+0%;+0%;;;FALSE;TRUE;0.0;0.0;1;0.000000;0.500000;;;;;;;;;;;PV_TABLE_CURVE | YMAX-X;EO-01 | ENTRY;Subtraction;;;;0.000;0.0000;;;
EO-03;CALC;ABSOLUTE;ABSOLUTE;10.518;;1.3638;;NONE;NONE;ANY;+0%;+0%;;;FALSE;TRUE;0.0;0.0;1;0.000000;1.000000;;;;;;;;;;;PV_TABLE_CURVE | YMAX-Y;PV_TABLE_CURVE | YMIN-Y;Subtraction;;;;0.000;0.0000;;;
EO-04;OFF
EO-05;OFF
EO-06;OFF
EO-07;OFF
EO-08;OFF
EO-09;OFF
EO-10;OFF



















Switch signal settings;Channel;Threshold at;;Trigger from;Reference;Latch until
Type S1;X;10.370;mm;LEFT;ABSOLUTE;None
Type S2;OFF

















Device information
Device type;maXYmos TL
Device type number;5877A0
Device serial number;4915792
Firmware version;1.1.12 (r21150-TL_v1.1.x)
-
-
-
-
-
IP Address;192.168.21.20
Network name;Maxymos 2
Profibus address;10
-
-
-
Station name;Maxymos 2
Company name;
Comment;











Channel-X settings
Use the settings from global setup;True
Sensor-X type;Potentiometer
Unit;mm
Used range from;8.000;mm
Used range to;12.000;mm
Decimal places;XXX.XXX
Scaling by;Teach-In
Point 1;-0.380;mm;16.488;%
Point 2;72.105;mm;72.105;%
Invert signal;FALSE
Filter;OFF
Test point;0.000;mm
Tolerance;0.010;mm
Enable sensor test by dig-input;FALSE
Zoom from;0.000;mm
Zoom to;100.000;mm
Master Measurement Enable;FALSE
Master Measurement Nominal Position;0.000;mm
Encoder interpolation factor;-
Encoder electrical interface;-
Encoder referencing type;-
Encoder referencing edge;-
Encoder pulses per minute;-
Encoder use every nth-mark;-
Reference;-
Encoder reference points;-
Encoder coding;-
Encoder width;-
Encoder optimization;-
Encoder clock frequency;-
Termination resistor;-








Channel-Y settings
Use the settings from global setup;True
Sensor-Y type;Â±10V
Unit;RMS
Used range from;0.0000;RMS
Used range to;10.0000;RMS
Decimal places;XX.XXXX
Scaling by;Calibration Sheet
Sensitivity;1000.0000;RMS;-4.000;mV/V
Zero point;0.0000;RMS;0.000;mV/V
Invert signal;FALSE
Filter;OFF
Piezo reset;-
Test point;0.0000;RMS
Tolerance;0.0000;RMS
Enable sensor test by dig-input;FALSE
Zoom from;0.0000;RMS
Zoom to;1000.0000;RMS












Cycle control settings
Use the settings from global setup;True
Measuring function;Y (X)
Delta-X;User-Defined;0.00500;mm
START condition;Threshold-X;7.500;mm;Trigger from;LEFT
STOP condition;Threshold-X;12.000;mm;Trigger from;LEFT
Cycle time out;2.00;s
Turning point RIGHT;YMAX
Turning point LEFT;NONE
Cut curve at;NONE










Evaluation settings
Capture only first NOK-EO for statistics;False
Hysteresis X;0.0;%
Hysteresis Y;0.0;%






Trigger Y settings
Threshold at;1.2839;RMS
Value X at TRIGGER Y;0.000;mm
Approach from;BELOW






Block settings
Value X at block;XMAX
Block at;0.000;mm







Measuring curve
Number of measuring points;710
Ref. Graph on;ABSOLUTE
Curve segments;0;0;139;139;


Time;X(ABSOLUTE);Y;X (ABSOLUTE)


s;mm;RMS;mm
0.0000;7.64279;0.03214;7.64279
0.0003;7.65570;0.03204;7.65570
0.0005;7.66091;0.03172;7.66091
0.0007;7.66784;0.03181;7.66784
0.0009;7.67849;0.03156;7.67849
0.0014;7.68423;0.03141;7.68423
0.0015;7.69132;0.03145;7.69132
0.0015;7.70188;0.03132;7.70188
0.0016;7.70781;0.03127;7.70781
0.0020;7.71358;0.03108;7.71358
0.0021;7.71960;0.03108;7.71960
0.0022;7.73188;0.03110;7.73188
0.0025;7.73951;0.03106;7.73951
0.0029;7.74589;0.03106;7.74589
0.0031;7.75218;0.03105;7.75218
0.0031;7.75795;0.03113;7.75795
0.0035;7.76544;0.03160;7.76544
0.0036;7.77173;0.03171;7.77173
0.0038;7.77736;0.03213;7.77736
0.0042;7.78427;0.03242;7.78427
0.0045;7.79238;0.03285;7.79238
0.0048;7.79960;0.03318;7.79960
0.0052;7.80476;0.03569;7.80476
0.0055;7.81134;0.04450;7.81134
0.0056;7.81653;0.04810;7.81653
0.0062;7.82003;0.06820;7.82003
0.0065;7.82580;0.07627;7.82580
0.0066;7.82029;0.07808;7.82029
0.0069;7.82616;0.08234;7.82616
0.0075;7.83386;0.08998;7.83386
0.0081;7.83905;0.09287;7.83905
0.0082;7.84523;0.09317;7.84523
0.0086;7.83926;0.09364;7.83926
0.0088;7.84629;0.09362;7.84629
0.0089;7.85145;0.09352;7.85145
0.0091;7.84635;0.09301;7.84635
0.0094;7.85250;0.09249;7.85250
0.0098;7.86005;0.09094;7.86005
0.0099;7.86561;0.09048;7.86561
0.0103;7.87114;0.08852;7.87114
0.0105;7.87748;0.08759;7.87748
0.0108;7.88389;0.08588;7.88389
0.0110;7.88902;0.08449;7.88902
0.0114;7.89527;0.08274;7.89527
0.0115;7.90092;0.08183;7.90092
0.0121;7.90891;0.07873;7.90891
0.0124;7.91493;0.07708;7.91493
0.0125;7.92095;0.07646;7.92095
0.0126;7.92838;0.07578;7.92838
0.0128;7.93624;0.07521;7.93624
0.0130;7.94193;0.07403;7.94193
0.0132;7.94803;0.07288;7.94803
0.0133;7.95352;0.07190;7.95352
0.0134;7.95867;0.07140;7.95867
0.0138;7.96398;0.06927;7.96398
0.0140;7.96997;0.06856;7.96997
0.0141;7.97652;0.06776;7.97652
0.0145;7.98426;0.06625;7.98426
0.0147;7.99074;0.06519;7.99074
0.0151;7.99627;0.06396;7.99627
0.0152;8.00172;0.06345;8.00172
0.0155;8.00722;0.06218;8.00722
0.0156;8.01283;0.06149;8.01283
0.0158;8.01825;0.06080;8.01825
0.0161;8.02816;0.05986;8.02816
0.0161;8.03351;0.05964;8.03351
0.0165;8.04219;0.05860;8.04219
0.0169;8.04868;0.05697;8.04868
0.0171;8.05834;0.05648;8.05834
0.0171;8.06387;0.05641;8.06387
0.0172;8.06950;0.05603;8.06950
0.0178;8.07666;0.05427;8.07666
0.0179;8.08457;0.05402;8.08457
0.0181;8.08998;0.05333;8.08998
0.0183;8.09513;0.05265;8.09513
0.0184;8.10166;0.05240;8.10166
0.0188;8.10667;0.05148;8.10667
0.0191;8.11209;0.05081;8.11209
0.0192;8.11795;0.05039;8.11795
0.0195;8.12474;0.04950;8.12474
0.0198;8.13326;0.04878;8.13326
0.0200;8.13916;0.04841;8.13916
0.0201;8.14626;0.04822;8.14626
0.0202;8.15151;0.04810;8.15151
0.0203;8.15851;0.04790;8.15851
0.0204;8.16409;0.04768;8.16409
0.0204;8.17071;0.04758;8.17071
0.0205;8.17808;0.04744;8.17808
0.0208;8.18793;0.04693;8.18793
0.0209;8.19434;0.04675;8.19434
0.0211;8.20095;0.04644;8.20095
0.0212;8.20736;0.04637;8.20736
0.0212;8.21286;0.04655;8.21286
0.0215;8.21845;0.07013;8.21845
0.0216;8.21842;0.09679;8.21842
0.0217;8.21893;0.12852;8.21893
0.0218;8.22357;0.16149;8.22357
0.0218;8.22861;0.17824;8.22861
0.0219;8.23545;0.19471;8.23545
0.0220;8.23637;0.22718;8.23637
0.0221;8.23983;0.25898;8.23983
0.0222;8.24723;0.28988;8.24723
0.0223;8.25234;0.31979;8.25234
0.0224;8.25936;0.34839;8.25936
0.0224;8.26488;0.36215;8.26488
0.0225;8.27681;0.38928;8.27681
0.0226;8.28414;0.40283;8.28414
0.0227;8.28441;0.42916;8.28441
0.0228;8.28676;0.45496;8.28676
0.0228;8.29230;0.46766;8.29230
0.0229;8.29707;0.49282;8.29707
0.0230;8.30401;0.51784;8.30401
0.0230;8.30976;0.53039;8.30976
0.0231;8.31782;0.54259;8.31782
0.0231;8.32448;0.55455;8.32448
0.0232;8.33259;0.56636;8.33259
0.0232;8.33885;0.57763;8.33885
0.0233;8.33999;0.59938;8.33999
0.0235;8.34802;0.62914;8.34802
0.0236;8.34774;0.65637;8.34774
0.0238;8.35907;0.68105;8.35907
0.0238;8.36917;0.68869;8.36917
0.0239;8.37610;0.69602;8.37610
0.0240;8.37885;0.71624;8.37885
0.0241;8.39005;0.72838;8.39005
0.0241;8.39642;0.73405;8.39642
0.0243;8.40407;0.74974;8.40407
0.0244;8.41138;0.75886;8.41138
0.0244;8.41663;0.76323;8.41663
0.0245;8.42511;0.77100;8.42511
0.0249;8.43182;0.79235;8.43182
0.0250;8.43948;0.79671;8.43948
0.0251;8.44700;0.80036;8.44700
0.0252;8.45661;0.80359;8.45661
0.0252;8.46480;0.80495;8.46480
0.0253;8.47012;0.80793;8.47012
0.0254;8.47670;0.80952;8.47670
0.0255;8.48213;0.80993;8.48213
0.0256;8.48857;0.81071;8.48857
0.0257;8.48981;0.81083;8.48981
0.0258;8.49591;0.81010;8.49591
0.0259;8.50257;0.80984;8.50257
0.0261;8.50973;0.80708;8.50973
0.0262;8.51604;0.80424;8.51604
0.0264;8.52203;0.80049;8.52203
0.0264;8.53104;0.79783;8.53104
0.0265;8.53659;0.79636;8.53659
0.0265;8.54444;0.79475;8.54444
0.0268;8.54998;0.78399;8.54998
0.0269;8.55616;0.78000;8.55616
0.0271;8.56268;0.77352;8.56268
0.0272;8.56920;0.76913;8.56920
0.0275;8.57716;0.75193;8.57716
0.0276;8.58338;0.74418;8.58338
0.0277;8.59043;0.73895;8.59043
0.0278;8.60041;0.73353;8.60041
0.0282;8.60687;0.71337;8.60687
0.0284;8.61299;0.69867;8.61299
0.0285;8.62012;0.69271;8.62012
0.0286;8.62604;0.68953;8.62604
0.0287;8.62100;0.68352;8.62100
0.0290;8.62244;0.66193;8.62244
0.0292;8.62878;0.64951;8.62878
0.0295;8.63442;0.62784;8.63442
0.0298;8.64190;0.61212;8.64190
0.0301;8.63743;0.59055;8.63743
0.0302;8.64601;0.58432;8.64601
0.0304;8.65530;0.56882;8.65530
0.0307;8.64936;0.55374;8.64936
0.0310;8.65348;0.53295;8.65348
0.0312;8.65861;0.52401;8.65861
0.0315;8.66182;0.50100;8.66182
0.0319;8.66186;0.47871;8.66186
0.0322;8.66739;0.46268;8.66739
0.0326;8.67284;0.44205;8.67284
0.0330;8.67354;0.42192;8.67354
0.0334;8.67807;0.40031;8.67807
0.0337;8.68345;0.38399;8.68345
0.0342;8.68936;0.36430;8.68936
0.0345;8.69535;0.35201;8.69535
0.0346;8.70103;0.34586;8.70103
0.0347;8.70764;0.34194;8.70764
0.0348;8.71508;0.33797;8.71508
0.0349;8.72084;0.33403;8.72084
0.0351;8.72833;0.32644;8.72833
0.0352;8.73353;0.32265;8.73353
0.0354;8.73895;0.31530;8.73895
0.0355;8.74571;0.31184;8.74571
0.0356;8.75134;0.30638;8.75134
0.0358;8.75806;0.30120;8.75806
0.0360;8.76316;0.29300;8.76316
0.0361;8.77422;0.28961;8.77422
0.0364;8.78164;0.27999;8.78164
0.0364;8.78702;0.27855;8.78702
0.0367;8.79397;0.26920;8.79397
0.0368;8.80180;0.26616;8.80180
0.0371;8.81046;0.25885;8.81046
0.0371;8.81622;0.25731;8.81622
0.0373;8.82226;0.25027;8.82226
0.0374;8.82921;0.24731;8.82921
0.0375;8.83809;0.24462;8.83809
0.0377;8.84340;0.23927;8.84340
0.0379;8.84896;0.23516;8.84896
0.0381;8.85494;0.22868;8.85494
0.0384;8.86133;0.22243;8.86133
0.0384;8.87086;0.22000;8.87086
0.0386;8.87802;0.21497;8.87802
0.0387;8.88464;0.21269;8.88464
0.0388;8.89124;0.21018;8.89124
0.0389;8.89707;0.20788;8.89707
0.0391;8.90304;0.20448;8.90304
0.0392;8.90813;0.20206;8.90813
0.0393;8.91359;0.19869;8.91359
0.0395;8.92103;0.19431;8.92103
0.0397;8.92679;0.19017;8.92679
0.0398;8.93308;0.18805;8.93308
0.0401;8.93886;0.18185;8.93886
0.0402;8.94786;0.17989;8.94786
0.0403;8.95297;0.17782;8.95297
0.0404;8.96025;0.17574;8.96025
0.0404;8.96578;0.17493;8.96578
0.0405;8.97131;0.17313;8.97131
0.0406;8.97742;0.17125;8.97742
0.0408;8.98325;0.16761;8.98325
0.0409;8.98850;0.16571;8.98850
0.0411;8.99716;0.16225;8.99716
0.0414;9.00365;0.15698;9.00365
0.0415;9.01095;0.15523;9.01095
0.0418;9.01642;0.14952;9.01642
0.0420;9.02286;0.14706;9.02286
0.0421;9.03165;0.14478;9.03165
0.0422;9.03850;0.14311;9.03850
0.0424;9.04410;0.13933;9.04410
0.0426;9.04950;0.13700;9.04950
0.0427;9.05462;0.13463;9.05462
0.0428;9.06123;0.13396;9.06123
0.0431;9.07001;0.12905;9.07001
0.0432;9.07544;0.12741;9.07544
0.0434;9.08535;0.12433;9.08535
0.0438;9.09328;0.11954;9.09328
0.0441;9.09987;0.11511;9.09987
0.0444;9.10878;0.11110;9.10878
0.0448;9.11449;0.10640;9.11449
0.0452;9.11977;0.10302;9.11977
0.0454;9.12522;0.10104;9.12522
0.0455;9.13143;0.09997;9.13143
0.0456;9.13656;0.09910;9.13656
0.0458;9.14276;0.09668;9.14276
0.0461;9.14823;0.09409;9.14823
0.0462;9.15461;0.09321;9.15461
0.0464;9.16147;0.09116;9.16147
0.0465;9.16684;0.09072;9.16684
0.0467;9.17317;0.08893;9.17317
0.0468;9.18371;0.08764;9.18371
0.0471;9.19112;0.08541;9.19112
0.0475;9.19887;0.08278;9.19887
0.0477;9.20464;0.08152;9.20464
0.0478;9.21068;0.08071;9.21068
0.0480;9.21610;0.07926;9.21610
0.0482;9.22533;0.07824;9.22533
0.0484;9.23339;0.07679;9.23339
0.0485;9.23994;0.07619;9.23994
0.0487;9.24762;0.07541;9.24762
0.0488;9.25310;0.07433;9.25310
0.0492;9.25979;0.07250;9.25979
0.0494;9.26665;0.07127;9.26665
0.0495;9.27463;0.07073;9.27463
0.0498;9.28391;0.06930;9.28391
0.0498;9.29106;0.06911;9.29106
0.0499;9.28575;0.06865;9.28575
0.0501;9.29331;0.06775;9.29331
0.0504;9.29842;0.06638;9.29842
0.0507;9.30568;0.06514;9.30568
0.0508;9.31144;0.06491;9.31144
0.0513;9.31788;0.06277;9.31788
0.0515;9.32414;0.06232;9.32414
0.0518;9.32941;0.06118;9.32941
0.0520;9.33527;0.06011;9.33527
0.0523;9.34041;0.05920;9.34041
0.0525;9.34605;0.05851;9.34605
0.0527;9.35291;0.05770;9.35291
0.0528;9.35807;0.05728;9.35807
0.0531;9.36562;0.05634;9.36562
0.0533;9.37170;0.05572;9.37170
0.0534;9.37787;0.05544;9.37787
0.0538;9.38633;0.05422;9.38633
0.0540;9.39264;0.05353;9.39264
0.0541;9.40128;0.05342;9.40128
0.0542;9.40679;0.05315;9.40679
0.0543;9.41232;0.05282;9.41232
0.0545;9.41892;0.05247;9.41892
0.0547;9.42486;0.05211;9.42486
0.0550;9.43132;0.05132;9.43132
0.0551;9.43732;0.05099;9.43732
0.0552;9.44344;0.05060;9.44344
0.0554;9.45157;0.05026;9.45157
0.0557;9.45692;0.04962;9.45692
0.0558;9.46195;0.04949;9.46195
0.0558;9.46704;0.04953;9.46704
0.0560;9.47297;0.04910;9.47297
0.0561;9.48178;0.04873;9.48178
0.0564;9.49053;0.04831;9.49053
0.0565;9.49634;0.04818;9.49634
0.0568;9.50218;0.04797;9.50218
0.0572;9.51074;0.04706;9.51074
0.0575;9.51584;0.04688;9.51584
0.0577;9.52345;0.04652;9.52345
0.0578;9.52922;0.04645;9.52922
0.0581;9.53467;0.04605;9.53467
0.0584;9.53983;0.04567;9.53983
0.0586;9.54490;0.04553;9.54490
0.0591;9.55188;0.04482;9.55188
0.0592;9.55696;0.04452;9.55696
0.0595;9.56336;0.04418;9.56336
0.0597;9.57014;0.04370;9.57014
0.0598;9.57563;0.04357;9.57563
0.0600;9.58192;0.04316;9.58192
0.0601;9.58976;0.04312;9.58976
0.0603;9.59524;0.04271;9.59524
0.0605;9.60277;0.04264;9.60277
0.0608;9.60860;0.04226;9.60860
0.0611;9.61528;0.04253;9.61528
0.0612;9.62146;0.04279;9.62146
0.0612;9.62779;0.04301;9.62779
0.0613;9.62234;0.04314;9.62234
0.0618;9.62828;0.04449;9.62828
0.0618;9.63593;0.04439;9.63593
0.0619;9.64256;0.04446;9.64256
0.0620;9.63551;0.04483;9.63551
0.0624;9.64129;0.04496;9.64129
0.0625;9.65001;0.04507;9.65001
0.0627;9.65613;0.04514;9.65613
0.0630;9.66154;0.04501;9.66154
0.0631;9.66954;0.04507;9.66954
0.0632;9.67591;0.04494;9.67591
0.0634;9.68103;0.04462;9.68103
0.0638;9.68799;0.04416;9.68799
0.0638;9.69663;0.04401;9.69663
0.0641;9.70473;0.04381;9.70473
0.0645;9.71250;0.04324;9.71250
0.0645;9.71870;0.04321;9.71870
0.0647;9.72484;0.04302;9.72484
0.0647;9.72998;0.04291;9.72998
0.0650;9.73682;0.04273;9.73682
0.0651;9.74302;0.04249;9.74302
0.0652;9.75268;0.04249;9.75268
0.0654;9.75878;0.04224;9.75878
0.0655;9.76450;0.04198;9.76450
0.0658;9.77096;0.04172;9.77096
0.0659;9.78299;0.04161;9.78299
0.0661;9.78927;0.04135;9.78927
0.0664;9.79712;0.04074;9.79712
0.0665;9.80261;0.04068;9.80261
0.0665;9.80858;0.04068;9.80858
0.0670;9.81484;0.04012;9.81484
0.0671;9.82052;0.04013;9.82052
0.0671;9.83378;0.03991;9.83378
0.0672;9.84061;0.03993;9.84061
0.0678;9.84678;0.03915;9.84678
0.0679;9.85496;0.03928;9.85496
0.0682;9.86084;0.03873;9.86084
0.0684;9.86682;0.03867;9.86682
0.0685;9.87537;0.03838;9.87537
0.0690;9.88109;0.03757;9.88109
0.0691;9.88727;0.03765;9.88727
0.0691;9.89230;0.03761;9.89230
0.0692;9.89961;0.03748;9.89961
0.0697;9.90823;0.03670;9.90823
0.0697;9.91390;0.03675;9.91390
0.0698;9.91903;0.03660;9.91903
0.0704;9.92412;0.03590;9.92412
0.0705;9.93168;0.03591;9.93168
0.0711;9.94065;0.03514;9.94065
0.0711;9.94712;0.03515;9.94712
0.0715;9.95272;0.03489;9.95272
0.0717;9.95879;0.03454;9.95879
0.0718;9.96608;0.03450;9.96608
0.0721;9.97232;0.03437;9.97232
0.0724;9.97939;0.03424;9.97939
0.0725;9.98531;0.03419;9.98531
0.0725;9.99066;0.03413;9.99066
0.0731;9.99656;0.03411;9.99656
0.0731;10.00376;0.03398;10.00376
0.0732;10.00943;0.03392;10.00943
0.0733;10.00275;0.03407;10.00275
0.0738;10.01037;0.03387;10.01037
0.0741;10.01666;0.03366;10.01666
0.0742;10.02260;0.03365;10.02260
0.0744;10.02913;0.03354;10.02913
0.0745;10.03432;0.03357;10.03432
0.0748;10.04089;0.03360;10.04089
0.0751;10.04823;0.03342;10.04823
0.0752;10.05568;0.03342;10.05568
0.0754;10.06141;0.03341;10.06141
0.0755;10.06656;0.03357;10.06656
0.0756;10.07424;0.03341;10.07424
0.0758;10.08057;0.03347;10.08057
0.0760;10.08627;0.03335;10.08627
0.0761;10.09200;0.03350;10.09200
0.0761;10.09755;0.03337;10.09755
0.0764;10.10432;0.03330;10.10432
0.0766;10.11027;0.03326;10.11027
0.0768;10.11945;0.03327;10.11945
0.0773;10.12485;0.03327;10.12485
0.0775;10.13177;0.03330;10.13177
0.0779;10.13901;0.03296;10.13901
0.0780;10.14607;0.03315;10.14607
0.0781;10.15206;0.03310;10.15206
0.0781;10.15756;0.03297;10.15756
0.0783;10.16464;0.03300;10.16464
0.0784;10.16996;0.03305;10.16996
0.0787;10.17547;0.03285;10.17547
0.0788;10.18113;0.03271;10.18113
0.0794;10.18794;0.03237;10.18794
0.0795;10.19467;0.03243;10.19467
0.0797;10.19982;0.03212;10.19982
0.0799;10.20555;0.03215;10.20555
0.0801;10.21401;0.03203;10.21401
0.0804;10.22032;0.03192;10.22032
0.0805;10.22692;0.03177;10.22692
0.0807;10.23400;0.03174;10.23400
0.0808;10.23904;0.03175;10.23904
0.0812;10.24475;0.03143;10.24475
0.0814;10.25063;0.03140;10.25063
0.0815;10.25894;0.03143;10.25894
0.0817;10.26525;0.03125;10.26525
0.0819;10.27046;0.03107;10.27046
0.0821;10.27865;0.03103;10.27865
0.0822;10.28380;0.03099;10.28380
0.0826;10.28906;0.03081;10.28906
0.0827;10.29622;0.03085;10.29622
0.0831;10.30144;0.03073;10.30144
0.0834;10.31039;0.03061;10.31039
0.0835;10.31591;0.03016;10.31591
0.0838;10.32110;0.03026;10.32110
0.0841;10.32747;0.02997;10.32747
0.0844;10.33280;0.02951;10.33280
0.0847;10.33892;0.02946;10.33892
0.0851;10.34414;0.02939;10.34414
0.0853;10.34998;0.02928;10.34998
0.0854;10.35785;0.02915;10.35785
0.0855;10.36441;0.02906;10.36441
0.0861;10.36985;0.02924;10.36985
0.0862;10.37493;0.02919;10.37493
0.0866;10.38020;0.02921;10.38020
0.0868;10.39192;0.02919;10.39192
0.0873;10.39738;0.02928;10.39738
0.0875;10.40576;0.02944;10.40576
0.0878;10.41356;0.02958;10.41356
0.0879;10.41886;0.02967;10.41886
0.0881;10.42466;0.02978;10.42466
0.0882;10.43262;0.02974;10.43262
0.0885;10.43840;0.02976;10.43840
0.0886;10.44470;0.02977;10.44470
0.0887;10.44997;0.02979;10.44997
0.0888;10.45870;0.02971;10.45870
0.0888;10.46607;0.02969;10.46607
0.0892;10.47171;0.02975;10.47171
0.0894;10.47753;0.02966;10.47753
0.0895;10.48546;0.02969;10.48546
0.0899;10.49085;0.02978;10.49085
0.0900;10.49687;0.02985;10.49687
0.0901;10.50250;0.02982;10.50250
0.0907;10.51173;0.03015;10.51173
0.0908;10.51942;0.03001;10.51942
0.0913;10.52710;0.03045;10.52710
0.0914;10.53513;0.03060;10.53513
0.0915;10.54094;0.03063;10.54094
0.0919;10.54763;0.03106;10.54763
0.0921;10.55399;0.03134;10.55399
0.0922;10.55910;0.03163;10.55910
0.0926;10.56431;0.03192;10.56431
0.0927;10.57434;0.03207;10.57434
0.0928;10.57953;0.03211;10.57953
0.0928;10.58573;0.03210;10.58573
0.0932;10.59108;0.03235;10.59108
0.0933;10.59765;0.03243;10.59765
0.0934;10.60363;0.03255;10.60363
0.0935;10.61342;0.03267;10.61342
0.0941;10.62112;0.03286;10.62112
0.0942;10.62845;0.03295;10.62845
0.0948;10.63471;0.03318;10.63471
0.0951;10.64125;0.03334;10.64125
0.0954;10.64846;0.03327;10.64846
0.0955;10.65561;0.03336;10.65561
0.0960;10.66253;0.03331;10.66253
0.0961;10.67255;0.03320;10.67255
0.0962;10.67780;0.03332;10.67780
0.0964;10.68368;0.03330;10.68368
0.0966;10.68885;0.03329;10.68885
0.0967;10.69561;0.03339;10.69561
0.0969;10.70236;0.03338;10.70236
0.0974;10.71066;0.03360;10.71066
0.0975;10.71731;0.03342;10.71731
0.0979;10.72404;0.03356;10.72404
0.0981;10.73173;0.03333;10.73173
0.0982;10.73761;0.03339;10.73761
0.0986;10.74463;0.03348;10.74463
0.0988;10.75019;0.03343;10.75019
0.0991;10.75586;0.03340;10.75586
0.0993;10.76150;0.03325;10.76150
0.0995;10.76861;0.03322;10.76861
0.0996;10.77373;0.03309;10.77373
0.0997;10.77921;0.03317;10.77921
0.0999;10.78543;0.03301;10.78543
0.1001;10.79342;0.03298;10.79342
0.1005;10.79882;0.03302;10.79882
0.1007;10.80387;0.03296;10.80387
0.1009;10.80914;0.03275;10.80914
0.1011;10.81744;0.03282;10.81744
0.1014;10.82467;0.03255;10.82467
0.1018;10.83056;0.03248;10.83056
0.1020;10.83756;0.03249;10.83756
0.1023;10.84321;0.03231;10.84321
0.1024;10.84898;0.03233;10.84898
0.1027;10.85717;0.03230;10.85717
0.1030;10.86489;0.03220;10.86489
0.1031;10.87041;0.03217;10.87041
0.1031;10.87685;0.03237;10.87685
0.1034;10.88337;0.03211;10.88337
0.1036;10.88937;0.03208;10.88937
0.1038;10.89575;0.03185;10.89575
0.1041;10.90208;0.03152;10.90208
0.1044;10.90747;0.03141;10.90747
0.1049;10.91286;0.03123;10.91286
0.1051;10.91907;0.03124;10.91907
0.1054;10.92727;0.03097;10.92727
0.1057;10.93317;0.03071;10.93317
0.1058;10.93995;0.03068;10.93995
0.1064;10.94546;0.03044;10.94546
0.1065;10.95123;0.03042;10.95123
0.1072;10.95939;0.03036;10.95939
0.1074;10.96830;0.03027;10.96830
0.1078;10.97438;0.03012;10.97438
0.1080;10.98090;0.03015;10.98090
0.1083;10.98800;0.03016;10.98800
0.1084;10.99381;0.03010;10.99381
0.1087;10.99919;0.02996;10.99919
0.1090;11.00678;0.02973;11.00678
0.1091;11.01240;0.02957;11.01240
0.1094;11.01870;0.02946;11.01870
0.1097;11.02747;0.02934;11.02747
0.1098;11.03625;0.02910;11.03625
0.1099;11.03012;0.02911;11.03012
0.1101;11.03604;0.02888;11.03604
0.1105;11.04209;0.02860;11.04209
0.1107;11.03628;0.02851;11.03628
0.1108;11.04462;0.02856;11.04462
0.1111;11.05053;0.02851;11.05053
0.1115;11.05612;0.02846;11.05612
0.1118;11.06378;0.02849;11.06378
0.1123;11.06911;0.02855;11.06911
0.1125;11.07591;0.02879;11.07591
0.1130;11.08097;0.02894;11.08097
0.1131;11.08984;0.02902;11.08984
0.1135;11.09660;0.02917;11.09660
0.1138;11.10304;0.02910;11.10304
0.1139;11.10916;0.02915;11.10916
0.1141;11.11669;0.02921;11.11669
0.1143;11.12244;0.02930;11.12244
0.1144;11.12862;0.02939;11.12862
0.1147;11.13574;0.02946;11.13574
0.1149;11.14099;0.02949;11.14099
0.1151;11.14629;0.02953;11.14629
0.1153;11.15136;0.02965;11.15136
0.1157;11.15675;0.02972;11.15675
0.1161;11.16291;0.02962;11.16291
0.1164;11.17017;0.02992;11.17017
0.1168;11.17570;0.03015;11.17570
0.1171;11.18354;0.03039;11.18354
0.1174;11.18971;0.03053;11.18971
0.1177;11.19649;0.03048;11.19649
0.1178;11.20451;0.03047;11.20451
0.1181;11.20976;0.03053;11.20976
0.1184;11.21532;0.03042;11.21532
0.1187;11.22197;0.03001;11.22197
0.1191;11.22707;0.03003;11.22707
0.1192;11.23450;0.02996;11.23450
0.1198;11.24212;0.02976;11.24212
0.1201;11.24938;0.02950;11.24938
0.1204;11.25483;0.02930;11.25483
0.1205;11.26051;0.02908;11.26051
0.1208;11.26654;0.02867;11.26654
0.1211;11.27478;0.02860;11.27478
0.1214;11.28417;0.02840;11.28417
0.1218;11.29062;0.02826;11.29062
0.1222;11.29680;0.02785;11.29680
0.1227;11.30361;0.02765;11.30361
0.1231;11.31171;0.02762;11.31171
0.1235;11.31811;0.02754;11.31811
0.1237;11.32312;0.02767;11.32312
0.1237;11.33006;0.02770;11.33006
0.1239;11.32449;0.02754;11.32449
0.1241;11.33160;0.02767;11.33160
0.1244;11.33797;0.02749;11.33797
0.1244;11.34303;0.02768;11.34303
0.1247;11.34921;0.02757;11.34921
0.1248;11.35438;0.02762;11.35438
0.1254;11.36261;0.02753;11.36261
0.1255;11.36958;0.02738;11.36958
0.1256;11.36294;0.02761;11.36294
0.1260;11.36966;0.02772;11.36966
0.1261;11.37482;0.02766;11.37482
0.1261;11.38004;0.02777;11.38004
0.1267;11.38629;0.02804;11.38629
0.1268;11.39191;0.02793;11.39191
0.1271;11.39919;0.02805;11.39919
0.1274;11.40565;0.02806;11.40565
0.1281;11.41365;0.02813;11.41365
0.1281;11.41929;0.02807;11.41929
0.1286;11.42494;0.02820;11.42494
0.1288;11.43412;0.02819;11.43412
0.1289;11.44089;0.02807;11.44089
0.1290;11.44818;0.02809;11.44818
0.1292;11.45424;0.02813;11.45424
0.1294;11.46246;0.02831;11.46246
0.1294;11.46825;0.02824;11.46825
0.1295;11.47456;0.02815;11.47456
0.1297;11.48243;0.02834;11.48243
0.1299;11.47611;0.02840;11.47611
0.1301;11.48212;0.02839;11.48212
0.1308;11.49070;0.02899;11.49070
0.1318;11.49580;0.02983;11.49580
0.1321;11.50083;0.03006;11.50083
0.1328;11.51108;0.03049;11.51108
0.1331;11.51640;0.03045;11.51640
0.1333;11.52355;0.03047;11.52355
0.1334;11.53176;0.03078;11.53176
0.1337;11.53840;0.03086;11.53840
0.1340;11.54429;0.03087;11.54429
0.1342;11.55076;0.03091;11.55076
0.1346;11.55676;0.03097;11.55676
0.1348;11.56608;0.03100;11.56608
0.1350;11.57129;0.03108;11.57129
0.1351;11.57714;0.03118;11.57714
0.1354;11.58321;0.03133;11.58321
0.1357;11.58903;0.03157;11.58903
0.1361;11.59416;0.03126;11.59416
0.1362;11.60124;0.03149;11.60124
0.1363;11.59604;0.03168;11.59604
0.1364;11.60309;0.03155;11.60309
0.1367;11.60833;0.03161;11.60833
0.1368;11.61419;0.03182;11.61419
0.1374;11.62073;0.03199;11.62073
0.1378;11.62701;0.03222;11.62701
0.1381;11.63445;0.03235;11.63445
0.1385;11.63971;0.03264;11.63971
0.1387;11.64512;0.03267;11.64512
0.1388;11.65295;0.03267;11.65295
0.1395;11.65915;0.03304;11.65915
0.1401;11.66598;0.03313;11.66598
0.1404;11.67132;0.03311;11.67132
0.1408;11.67736;0.03306;11.67736
0.1411;11.68528;0.03294;11.68528
0.1415;11.69429;0.03280;11.69429
0.1417;11.70122;0.03270;11.70122
0.1417;11.70687;0.03270;11.70687
0.1422;11.71285;0.03251;11.71285
0.1424;11.71961;0.03226;11.71961
0.1427;11.72627;0.03221;11.72627
0.1428;11.73289;0.03220;11.73289
0.1431;11.74438;0.03189;11.74438
0.1438;11.75120;0.03131;11.75120
0.1441;11.75712;0.03087;11.75712
0.1444;11.76416;0.03079;11.76416
0.1448;11.77034;0.03064;11.77034
0.1450;11.76496;0.03059;11.76496
0.1451;11.77316;0.03031;11.77316
0.1457;11.78037;0.03002;11.78037
0.1458;11.78758;0.02998;11.78758
0.1459;11.78202;0.02994;11.78202
0.1461;11.78738;0.02991;11.78738
0.1462;11.79469;0.02999;11.79469
0.1464;11.80325;0.02978;11.80325
0.1467;11.79760;0.02952;11.79760
0.1468;11.80335;0.02959;11.80335
0.1471;11.80955;0.02934;11.80955
0.1475;11.81612;0.02904;11.81612
0.1477;11.82124;0.02866;11.82124
0.1484;11.82759;0.02821;11.82759
0.1490;11.83291;0.02768;11.83291
0.1492;11.83791;0.02767;11.83791
0.1497;11.84379;0.02756;11.84379
0.1498;11.85014;0.02752;11.85014
0.1500;11.85924;0.02749;11.85924
0.1504;11.86647;0.02722;11.86647
0.1511;11.87240;0.02727;11.87240
0.1513;11.87163;0.02708;11.87163
0.1518;11.88043;0.02730;11.88043
0.1524;11.88876;0.02769;11.88876
0.1524;11.89644;0.02761;11.89644
0.1525;11.89108;0.02776;11.89108
0.1529;11.89703;0.02800;11.89703
0.1530;11.90264;0.02785;11.90264
0.1531;11.90972;0.02809;11.90972
0.1536;11.91542;0.02824;11.91542
0.1537;11.92105;0.02829;11.92105
0.1542;11.92609;0.02845;11.92609
0.1545;11.93380;0.02863;11.93380
0.1551;11.94044;0.02893;11.94044
0.1558;11.94938;0.02913;11.94938
0.1563;11.95528;0.03712;11.95528
0.1567;11.96073;0.04372;11.96073
0.1571;11.96599;0.04874;11.96599
0.1576;11.97185;0.05460;11.97185
0.1578;11.97807;0.05568;11.97807
0.1583;11.98497;0.05849;11.98497
0.1584;11.99041;0.05899;11.99041
0.1591;11.99774;0.06004;11.99774
0.1595;12.00020;0.06005;12.00020
