Part protocol
Network name;Part_Maxymos_2_MP-001_2017-03-14_14-21-57_RMS_bl_trans150obr_tepy_000023_OK.csv
Protocol version;3.01.00






Result information
Date;2017/03/14
Time;14:21:57
Cycle number;23
Total result;OK
Triggered switch signals
Part serial number;RMS_bl_trans150obr_tepy_000023
Measuring program name;Bl_trans
Measuring program number;1
Zero X offset;0.000;mm
Tara Y offset;0.0000;RMS









Process values - curve related
Block X;12.000;mm;XMIN-X;7.646;mm
Block Y;0.0223;RMS;XMIN-Y;0.0575;RMS
Ref X;-;mm;XMAX-X;12.000;mm
Peak-peak X;4.354;mm;XMAX-Y;0.0223;RMS
Peak-peak Y;0.5951;RMS;YMIN-X;11.335;mm
;;;YMIN-Y;0.0212;RMS
;;;YMAX-X;8.509;mm
;;;YMAX-Y;0.6163;RMS

Process values - EO related;Result;Entry;Exit;XMIN-X;XMIN-Y;XMAX-X;XMAX-Y;YMIN-Y;YMIN-X;YMAX-Y;YMAX-X;Calculated result;NOK cause;Violation X;Violation Y;Ref X;Ref Y;Switch force;Y-Diff;X-Diff;Force deviation ratio;Click ratio;Contact edge
;;;;mm;RMS;mm;RMS;RMS;mm;RMS;mm;-;-;-;-;-;-;-;-;-;-;-;-;
EO-01;OK;8.230;;;;;;;;;;;;;;;;
EO-02;OK;;;;;;;;;;;0.2790;;;;;;
EO-03;OK;;;;;;;;;;;0.5951;;;;;;
EO-04;None;
EO-05;None;
EO-06;None;
EO-07;None;
EO-08;None;
EO-09;None;
EO-10;None;


















Evaluation objects settings;Reaction;X reference;Y-Reference;XMin;XMax;YMin;YMax;Entry;Exit;Curve part;Catch zone X;Catch zone Y;EO Name;EO description;Re-entry ignored;Generate statistics;X-Hysteresis;Y-Hysteresis;Down sampling rate;Calc limit min;Calc limit max;Grad limit min;Grad limit max;Hyst limit min;Hyst limit max;Speed limit min;Speed limit max;Time limit min;Time limit max;Is curve inside box;GetRef type;CalcInput1 | dx;CalcInput2 | dx;Calc operation;Average limit min;Average limit max;Break max bending;Visualization offset X;Visualization offset Y;-;-;-
EO-01;LINE-X;ABSOLUTE;ABSOLUTE;8.037;8.473;0.1000;;BELOW;NONE;ANY;+50%;+0%;;;FALSE;TRUE;0.0;0.0;1;;;;;;;;;;;;;;;;;;;0.000;0.0000;;;
EO-02;CALC;ABSOLUTE;ABSOLUTE;-0.409;;1.5166;;NONE;NONE;ANY;+0%;+0%;;;FALSE;TRUE;0.0;0.0;1;0.000000;0.500000;;;;;;;;;;;PV_TABLE_CURVE | YMAX-X;EO-01 | ENTRY;Subtraction;;;;0.000;0.0000;;;
EO-03;CALC;ABSOLUTE;ABSOLUTE;10.518;;1.3638;;NONE;NONE;ANY;+0%;+0%;;;FALSE;TRUE;0.0;0.0;1;0.000000;1.000000;;;;;;;;;;;PV_TABLE_CURVE | YMAX-Y;PV_TABLE_CURVE | YMIN-Y;Subtraction;;;;0.000;0.0000;;;
EO-04;OFF
EO-05;OFF
EO-06;OFF
EO-07;OFF
EO-08;OFF
EO-09;OFF
EO-10;OFF



















Switch signal settings;Channel;Threshold at;;Trigger from;Reference;Latch until
Type S1;X;10.370;mm;LEFT;ABSOLUTE;None
Type S2;OFF

















Device information
Device type;maXYmos TL
Device type number;5877A0
Device serial number;4915792
Firmware version;1.1.12 (r21150-TL_v1.1.x)
-
-
-
-
-
IP Address;192.168.21.20
Network name;Maxymos 2
Profibus address;10
-
-
-
Station name;Maxymos 2
Company name;
Comment;











Channel-X settings
Use the settings from global setup;True
Sensor-X type;Potentiometer
Unit;mm
Used range from;8.000;mm
Used range to;12.000;mm
Decimal places;XXX.XXX
Scaling by;Teach-In
Point 1;-0.380;mm;16.488;%
Point 2;72.105;mm;72.105;%
Invert signal;FALSE
Filter;OFF
Test point;0.000;mm
Tolerance;0.010;mm
Enable sensor test by dig-input;FALSE
Zoom from;0.000;mm
Zoom to;100.000;mm
Master Measurement Enable;FALSE
Master Measurement Nominal Position;0.000;mm
Encoder interpolation factor;-
Encoder electrical interface;-
Encoder referencing type;-
Encoder referencing edge;-
Encoder pulses per minute;-
Encoder use every nth-mark;-
Reference;-
Encoder reference points;-
Encoder coding;-
Encoder width;-
Encoder optimization;-
Encoder clock frequency;-
Termination resistor;-








Channel-Y settings
Use the settings from global setup;True
Sensor-Y type;Â±10V
Unit;RMS
Used range from;0.0000;RMS
Used range to;10.0000;RMS
Decimal places;XX.XXXX
Scaling by;Calibration Sheet
Sensitivity;1000.0000;RMS;-4.000;mV/V
Zero point;0.0000;RMS;0.000;mV/V
Invert signal;FALSE
Filter;OFF
Piezo reset;-
Test point;0.0000;RMS
Tolerance;0.0000;RMS
Enable sensor test by dig-input;FALSE
Zoom from;0.0000;RMS
Zoom to;1000.0000;RMS












Cycle control settings
Use the settings from global setup;True
Measuring function;Y (X)
Delta-X;User-Defined;0.00500;mm
START condition;Threshold-X;7.500;mm;Trigger from;LEFT
STOP condition;Threshold-X;12.000;mm;Trigger from;LEFT
Cycle time out;2.00;s
Turning point RIGHT;YMAX
Turning point LEFT;NONE
Cut curve at;NONE










Evaluation settings
Capture only first NOK-EO for statistics;False
Hysteresis X;0.0;%
Hysteresis Y;0.0;%






Trigger Y settings
Threshold at;1.2839;RMS
Value X at TRIGGER Y;0.000;mm
Approach from;BELOW






Block settings
Value X at block;XMAX
Block at;0.000;mm







Measuring curve
Number of measuring points;730
Ref. Graph on;ABSOLUTE
Curve segments;0;139;138;730;


Time;X(ABSOLUTE);Y;X (ABSOLUTE)


s;mm;RMS;mm
0.0000;7.64641;0.05752;7.64641
0.0003;7.65895;0.05593;7.65895
0.0005;7.66564;0.05551;7.66564
0.0008;7.67191;0.05413;7.67191
0.0009;7.67748;0.05373;7.67748
0.0013;7.68349;0.05177;7.68349
0.0015;7.69041;0.05080;7.69041
0.0017;7.69724;0.05059;7.69724
0.0018;7.70305;0.05144;7.70305
0.0020;7.70926;0.05378;7.70926
0.0021;7.71493;0.05638;7.71493
0.0023;7.72048;0.05900;7.72048
0.0024;7.72709;0.06142;7.72709
0.0027;7.73215;0.06540;7.73215
0.0030;7.73820;0.06884;7.73820
0.0033;7.74327;0.07173;7.74327
0.0035;7.75000;0.07290;7.75000
0.0036;7.75563;0.07357;7.75563
0.0039;7.76204;0.07462;7.76204
0.0044;7.76815;0.07538;7.76815
0.0048;7.77492;0.07508;7.77492
0.0050;7.78170;0.07502;7.78170
0.0052;7.78728;0.07415;7.78728
0.0057;7.79375;0.07290;7.79375
0.0059;7.79907;0.07223;7.79907
0.0061;7.80438;0.07126;7.80438
0.0063;7.81073;0.07035;7.81073
0.0069;7.81665;0.06789;7.81665
0.0073;7.82175;0.06596;7.82175
0.0076;7.82775;0.06474;7.82775
0.0080;7.83386;0.06310;7.83386
0.0084;7.83929;0.06148;7.83929
0.0087;7.84579;0.06014;7.84579
0.0091;7.85186;0.05880;7.85186
0.0094;7.85785;0.05770;7.85785
0.0096;7.86387;0.05688;7.86387
0.0099;7.86909;0.05562;7.86909
0.0102;7.87539;0.05475;7.87539
0.0104;7.88040;0.05392;7.88040
0.0109;7.88569;0.05220;7.88569
0.0114;7.89108;0.05075;7.89108
0.0116;7.89680;0.05009;7.89680
0.0126;7.90190;0.04721;7.90190
0.0129;7.90813;0.04624;7.90813
0.0131;7.91477;0.04574;7.91477
0.0133;7.92141;0.04544;7.92141
0.0135;7.92815;0.04478;7.92815
0.0136;7.93351;0.04440;7.93351
0.0139;7.93865;0.04381;7.93865
0.0141;7.94366;0.04350;7.94366
0.0143;7.95019;0.04301;7.95019
0.0145;7.95571;0.04252;7.95571
0.0148;7.96103;0.04188;7.96103
0.0151;7.96733;0.04128;7.96733
0.0153;7.97267;0.04077;7.97267
0.0155;7.97800;0.04054;7.97800
0.0156;7.98536;0.04013;7.98536
0.0159;7.99168;0.03957;7.99168
0.0163;7.99857;0.03899;7.99857
0.0165;8.00448;0.03862;8.00448
0.0167;8.01131;0.03830;8.01131
0.0168;8.01660;0.03801;8.01660
0.0170;8.02306;0.03786;8.02306
0.0171;8.03057;0.03756;8.03057
0.0173;8.03563;0.03751;8.03563
0.0174;8.04077;0.03728;8.04077
0.0176;8.04920;0.03702;8.04920
0.0177;8.05482;0.03685;8.05482
0.0178;8.06173;0.03693;8.06173
0.0180;8.06685;0.03677;8.06685
0.0181;8.07288;0.03649;8.07288
0.0182;8.07972;0.03656;8.07972
0.0183;8.08666;0.03626;8.08666
0.0185;8.09360;0.03622;8.09360
0.0187;8.09948;0.03577;8.09948
0.0190;8.10519;0.03566;8.10519
0.0192;8.11087;0.03570;8.11087
0.0193;8.11747;0.03545;8.11747
0.0196;8.12250;0.03518;8.12250
0.0199;8.12795;0.03516;8.12795
0.0200;8.13367;0.03496;8.13367
0.0202;8.13917;0.03491;8.13917
0.0204;8.14784;0.03488;8.14784
0.0204;8.15578;0.03480;8.15578
0.0205;8.16145;0.03486;8.16145
0.0206;8.16823;0.03477;8.16823
0.0208;8.17475;0.03462;8.17475
0.0210;8.18152;0.03456;8.18152
0.0211;8.18737;0.03466;8.18737
0.0212;8.19265;0.03458;8.19265
0.0214;8.19832;0.03451;8.19832
0.0216;8.20419;0.03486;8.20419
0.0217;8.20965;0.03864;8.20965
0.0219;8.21506;0.05242;8.21506
0.0221;8.22062;0.07464;8.22062
0.0223;8.22580;0.09201;8.22580
0.0224;8.23123;0.10360;8.23123
0.0225;8.23637;0.11490;8.23637
0.0226;8.24239;0.12560;8.24239
0.0227;8.24902;0.13584;8.24902
0.0228;8.25480;0.14591;8.25480
0.0228;8.26322;0.15580;8.26322
0.0230;8.26921;0.17031;8.26921
0.0231;8.27680;0.18166;8.27680
0.0232;8.28350;0.20633;8.28350
0.0233;8.28382;0.22767;8.28382
0.0234;8.28973;0.25074;8.28973
0.0235;8.29797;0.27440;8.29797
0.0236;8.30642;0.29788;8.30642
0.0237;8.31180;0.30940;8.31180
0.0237;8.31741;0.32082;8.31741
0.0238;8.32578;0.34294;8.32578
0.0239;8.33090;0.35370;8.33090
0.0239;8.33679;0.36419;8.33679
0.0240;8.33969;0.38461;8.33969
0.0241;8.33897;0.41369;8.33897
0.0243;8.34752;0.44106;8.34752
0.0243;8.35254;0.44958;8.35254
0.0244;8.35970;0.46580;8.35970
0.0245;8.36693;0.48083;8.36693
0.0246;8.37571;0.49503;8.37571
0.0247;8.38388;0.50815;8.38388
0.0248;8.39198;0.52015;8.39198
0.0249;8.40165;0.53142;8.40165
0.0250;8.40910;0.54183;8.40910
0.0252;8.41469;0.55990;8.41469
0.0254;8.42081;0.57497;8.42081
0.0255;8.42878;0.58152;8.42878
0.0256;8.43789;0.58722;8.43789
0.0257;8.44683;0.59268;8.44683
0.0258;8.45285;0.59710;8.45285
0.0259;8.46186;0.60105;8.46186
0.0260;8.46849;0.60462;8.46849
0.0261;8.47639;0.60904;8.47639
0.0262;8.48334;0.61122;8.48334
0.0264;8.49071;0.61510;8.49071
0.0265;8.49854;0.61583;8.49854
0.0266;8.50541;0.61619;8.50541
0.0267;8.50854;0.61632;8.50854
0.0267;8.51254;0.61626;8.51254
0.0268;8.51772;0.61593;8.51772
0.0269;8.52329;0.61523;8.52329
0.0270;8.53194;0.61426;8.53194
0.0272;8.53970;0.61243;8.53970
0.0273;8.54595;0.61009;8.54595
0.0275;8.55351;0.60600;8.55351
0.0276;8.56083;0.60228;8.56083
0.0278;8.56611;0.59820;8.56611
0.0280;8.57133;0.59213;8.57133
0.0281;8.57770;0.58713;8.57770
0.0283;8.58574;0.58200;8.58574
0.0284;8.59116;0.57638;8.59116
0.0285;8.59669;0.57261;8.59669
0.0286;8.60316;0.56870;8.60316
0.0287;8.60847;0.56464;8.60847
0.0291;8.61382;0.54766;8.61382
0.0294;8.61911;0.53212;8.61911
0.0296;8.62416;0.52516;8.62416
0.0299;8.62933;0.50910;8.62933
0.0302;8.63464;0.49488;8.63464
0.0304;8.63977;0.48541;8.63977
0.0308;8.64537;0.46398;8.64537
0.0312;8.64923;0.44264;8.64923
0.0316;8.65437;0.42638;8.65437
0.0320;8.65418;0.40601;8.65418
0.0325;8.65623;0.38397;8.65623
0.0330;8.65798;0.36274;8.65798
0.0333;8.66338;0.35069;8.66338
0.0338;8.66785;0.32909;8.66785
0.0343;8.67330;0.31084;8.67330
0.0348;8.67958;0.29358;8.67958
0.0350;8.68661;0.28370;8.68661
0.0352;8.69255;0.27891;8.69255
0.0353;8.69934;0.27415;8.69934
0.0354;8.70531;0.27099;8.70531
0.0355;8.71048;0.26800;8.71048
0.0356;8.71801;0.26500;8.71801
0.0357;8.72446;0.26193;8.72446
0.0358;8.73117;0.25909;8.73117
0.0359;8.73635;0.25587;8.73635
0.0360;8.74375;0.25156;8.74375
0.0361;8.75096;0.24880;8.75096
0.0363;8.75634;0.24455;8.75634
0.0365;8.76360;0.23903;8.76360
0.0367;8.76899;0.23362;8.76899
0.0369;8.77531;0.22848;8.77531
0.0370;8.78178;0.22575;8.78178
0.0372;8.78811;0.22074;8.78811
0.0372;8.79464;0.21824;8.79464
0.0374;8.80380;0.21461;8.80380
0.0375;8.80899;0.21211;8.80899
0.0376;8.81542;0.20973;8.81542
0.0377;8.82187;0.20732;8.82187
0.0378;8.82784;0.20491;8.82784
0.0379;8.83352;0.20139;8.83352
0.0380;8.83947;0.19916;8.83947
0.0382;8.84468;0.19467;8.84468
0.0384;8.85077;0.19041;8.85077
0.0385;8.85620;0.18709;8.85620
0.0387;8.86217;0.18407;8.86217
0.0388;8.86984;0.18088;8.86984
0.0389;8.87682;0.17898;8.87682
0.0390;8.88187;0.17700;8.88187
0.0391;8.88910;0.17484;8.88910
0.0393;8.89623;0.17213;8.89623
0.0394;8.90324;0.16910;8.90324
0.0395;8.90830;0.16736;8.90830
0.0396;8.91483;0.16450;8.91483
0.0397;8.91996;0.16259;8.91996
0.0399;8.92678;0.15899;8.92678
0.0402;8.93214;0.15365;8.93214
0.0404;8.93782;0.15039;8.93782
0.0406;8.94517;0.14710;8.94517
0.0407;8.95445;0.14536;8.95445
0.0408;8.96283;0.14377;8.96283
0.0409;8.97021;0.14242;8.97021
0.0410;8.97570;0.14012;8.97570
0.0412;8.98103;0.13716;8.98103
0.0415;8.98763;0.13353;8.98763
0.0417;8.99494;0.13008;8.99494
0.0418;8.99994;0.12866;8.99994
0.0420;9.00499;0.12581;9.00499
0.0423;9.01027;0.12106;9.01027
0.0426;9.01752;0.11790;9.01752
0.0428;9.02409;0.11538;9.02409
0.0430;9.03016;0.11276;9.03016
0.0431;9.03594;0.11123;9.03594
0.0433;9.04157;0.10828;9.04157
0.0435;9.04849;0.10661;9.04849
0.0436;9.05539;0.10478;9.05539
0.0437;9.06053;0.10374;9.06053
0.0441;9.06785;0.09937;9.06785
0.0444;9.07365;0.09681;9.07365
0.0445;9.07958;0.09468;9.07958
0.0450;9.08528;0.09052;9.08528
0.0452;9.09118;0.08856;9.09118
0.0456;9.09662;0.08493;9.09662
0.0458;9.10209;0.08257;9.10209
0.0460;9.10745;0.08089;9.10745
0.0461;9.11294;0.08007;9.11294
0.0463;9.11858;0.07907;9.11858
0.0464;9.12361;0.07845;9.12361
0.0465;9.12989;0.07724;9.12989
0.0467;9.13583;0.07586;9.13583
0.0468;9.14126;0.07479;9.14126
0.0469;9.14693;0.07423;9.14693
0.0470;9.15206;0.07349;9.15206
0.0472;9.15770;0.07246;9.15770
0.0473;9.16455;0.07158;9.16455
0.0475;9.17109;0.07042;9.17109
0.0477;9.17665;0.06948;9.17665
0.0479;9.18188;0.06835;9.18188
0.0480;9.18782;0.06750;9.18782
0.0482;9.19324;0.06613;9.19324
0.0485;9.20061;0.06490;9.20061
0.0487;9.20583;0.06394;9.20583
0.0488;9.21273;0.06335;9.21273
0.0491;9.21856;0.06207;9.21856
0.0492;9.22519;0.06145;9.22519
0.0493;9.23064;0.06089;9.23064
0.0494;9.23644;0.06059;9.23644
0.0495;9.24148;0.06022;9.24148
0.0496;9.24766;0.05989;9.24766
0.0499;9.25353;0.05832;9.25353
0.0501;9.25880;0.05773;9.25880
0.0503;9.26597;0.05714;9.26597
0.0505;9.27155;0.05607;9.27155
0.0508;9.27769;0.05505;9.27769
0.0509;9.28398;0.05449;9.28398
0.0513;9.28994;0.05334;9.28994
0.0515;9.29661;0.05280;9.29661
0.0516;9.30202;0.05214;9.30202
0.0519;9.30855;0.05124;9.30855
0.0521;9.31396;0.05091;9.31396
0.0523;9.31949;0.05041;9.31949
0.0525;9.32512;0.04971;9.32512
0.0528;9.33164;0.04881;9.33164
0.0530;9.33766;0.04845;9.33766
0.0532;9.34379;0.04785;9.34379
0.0533;9.34941;0.04759;9.34941
0.0535;9.35491;0.04733;9.35491
0.0536;9.36028;0.04693;9.36028
0.0538;9.36555;0.04631;9.36555
0.0540;9.37297;0.04578;9.37297
0.0542;9.37863;0.04540;9.37863
0.0544;9.38447;0.04501;9.38447
0.0546;9.39068;0.04468;9.39068
0.0547;9.39870;0.04422;9.39870
0.0550;9.40423;0.04367;9.40423
0.0551;9.40996;0.04357;9.40996
0.0553;9.41642;0.04313;9.41642
0.0556;9.42170;0.04268;9.42170
0.0559;9.42765;0.04202;9.42765
0.0561;9.43323;0.04185;9.43323
0.0563;9.43889;0.04123;9.43889
0.0565;9.44572;0.04101;9.44572
0.0566;9.45138;0.04072;9.45138
0.0567;9.45718;0.04072;9.45718
0.0569;9.46230;0.04040;9.46230
0.0570;9.46756;0.04028;9.46756
0.0571;9.47338;0.03994;9.47338
0.0574;9.47943;0.03961;9.47943
0.0575;9.48463;0.03947;9.48463
0.0578;9.49095;0.03884;9.49095
0.0580;9.49624;0.03856;9.49624
0.0582;9.50183;0.03835;9.50183
0.0585;9.50890;0.03802;9.50890
0.0587;9.51403;0.03784;9.51403
0.0588;9.51928;0.03746;9.51928
0.0590;9.52497;0.03737;9.52497
0.0592;9.53105;0.03703;9.53105
0.0594;9.53722;0.03678;9.53722
0.0597;9.54349;0.03646;9.54349
0.0600;9.55003;0.03612;9.55003
0.0602;9.55590;0.03574;9.55590
0.0604;9.56244;0.03554;9.56244
0.0605;9.56811;0.03538;9.56811
0.0607;9.57451;0.03535;9.57451
0.0608;9.58037;0.03522;9.58037
0.0610;9.58665;0.03502;9.58665
0.0612;9.59285;0.03493;9.59285
0.0613;9.59875;0.03458;9.59875
0.0615;9.60435;0.03466;9.60435
0.0617;9.60947;0.03449;9.60947
0.0621;9.61556;0.03430;9.61556
0.0623;9.62098;0.03420;9.62098
0.0626;9.62634;0.03401;9.62634
0.0628;9.63262;0.03388;9.63262
0.0630;9.63878;0.03378;9.63878
0.0631;9.64457;0.03366;9.64457
0.0633;9.65063;0.03353;9.65063
0.0634;9.65622;0.03355;9.65622
0.0635;9.66142;0.03352;9.66142
0.0636;9.66945;0.03335;9.66945
0.0638;9.67578;0.03317;9.67578
0.0642;9.68357;0.03276;9.68357
0.0643;9.68890;0.03272;9.68890
0.0644;9.69629;0.03249;9.69629
0.0646;9.70157;0.03236;9.70157
0.0647;9.70776;0.03229;9.70776
0.0649;9.71367;0.03201;9.71367
0.0651;9.71953;0.03213;9.71953
0.0652;9.72688;0.03190;9.72688
0.0653;9.73227;0.03181;9.73227
0.0654;9.73873;0.03153;9.73873
0.0656;9.74457;0.03166;9.74457
0.0657;9.74991;0.03142;9.74991
0.0658;9.75764;0.03156;9.75764
0.0660;9.76443;0.03131;9.76443
0.0662;9.76955;0.03105;9.76955
0.0664;9.77534;0.03086;9.77534
0.0665;9.78132;0.03064;9.78132
0.0667;9.78764;0.03059;9.78764
0.0670;9.79379;0.03041;9.79379
0.0671;9.79972;0.03042;9.79972
0.0673;9.80599;0.03004;9.80599
0.0675;9.81341;0.02997;9.81341
0.0677;9.82009;0.02981;9.82009
0.0678;9.82819;0.02986;9.82819
0.0679;9.83436;0.02966;9.83436
0.0683;9.83950;0.02927;9.83950
0.0685;9.84524;0.02897;9.84524
0.0689;9.85282;0.02869;9.85282
0.0691;9.86076;0.02843;9.86076
0.0693;9.86720;0.02833;9.86720
0.0696;9.87324;0.02789;9.87324
0.0698;9.87887;0.02764;9.87887
0.0699;9.88615;0.02748;9.88615
0.0701;9.89155;0.02726;9.89155
0.0703;9.89841;0.02707;9.89841
0.0705;9.90542;0.02669;9.90542
0.0707;9.91093;0.02670;9.91093
0.0709;9.91660;0.02660;9.91660
0.0714;9.92247;0.02646;9.92247
0.0717;9.92941;0.02636;9.92941
0.0719;9.93442;0.02640;9.93442
0.0720;9.94084;0.02645;9.94084
0.0721;9.94631;0.02633;9.94631
0.0723;9.95185;0.02638;9.95185
0.0724;9.95742;0.02631;9.95742
0.0726;9.96401;0.02626;9.96401
0.0730;9.97185;0.02642;9.97185
0.0731;9.97719;0.02624;9.97719
0.0732;9.98448;0.02635;9.98448
0.0735;9.98954;0.02634;9.98954
0.0737;9.99541;0.02625;9.99541
0.0739;10.00062;0.02641;10.00062
0.0743;10.00659;0.02650;10.00659
0.0744;10.01233;0.02661;10.01233
0.0746;10.01824;0.02651;10.01824
0.0747;10.02507;0.02657;10.02507
0.0749;10.03013;0.02671;10.03013
0.0751;10.03527;0.02688;10.03527
0.0753;10.04074;0.02697;10.04074
0.0754;10.04604;0.02697;10.04604
0.0755;10.05160;0.02701;10.05160
0.0756;10.05968;0.02701;10.05968
0.0757;10.06472;0.02711;10.06472
0.0758;10.06973;0.02707;10.06973
0.0760;10.07616;0.02701;10.07616
0.0762;10.08339;0.02724;10.08339
0.0764;10.08936;0.02731;10.08936
0.0766;10.09487;0.02735;10.09487
0.0767;10.10192;0.02733;10.10192
0.0768;10.10774;0.02718;10.10774
0.0770;10.11369;0.02735;10.11369
0.0772;10.11904;0.02744;10.11904
0.0777;10.12495;0.02739;10.12495
0.0780;10.13004;0.02728;10.13004
0.0783;10.13646;0.02733;10.13646
0.0784;10.14432;0.02733;10.14432
0.0785;10.15027;0.02732;10.15027
0.0786;10.15600;0.02714;10.15600
0.0788;10.16191;0.02715;10.16191
0.0789;10.16748;0.02721;10.16748
0.0791;10.17307;0.02712;10.17307
0.0797;10.17849;0.02667;10.17849
0.0799;10.18484;0.02657;10.18484
0.0800;10.19054;0.02657;10.19054
0.0803;10.19743;0.02622;10.19743
0.0804;10.20310;0.02626;10.20310
0.0806;10.20967;0.02608;10.20967
0.0810;10.21758;0.02581;10.21758
0.0811;10.22428;0.02562;10.22428
0.0812;10.22997;0.02557;10.22997
0.0815;10.23533;0.02540;10.23533
0.0817;10.24139;0.02535;10.24139
0.0819;10.24662;0.02508;10.24662
0.0821;10.25247;0.02528;10.25247
0.0822;10.25845;0.02502;10.25845
0.0823;10.26464;0.02514;10.26464
0.0825;10.27071;0.02500;10.27071
0.0827;10.27605;0.02473;10.27605
0.0828;10.28114;0.02466;10.28114
0.0830;10.28693;0.02460;10.28693
0.0834;10.29314;0.02427;10.29314
0.0835;10.29935;0.02406;10.29935
0.0839;10.30504;0.02397;10.30504
0.0841;10.31129;0.02381;10.31129
0.0843;10.31755;0.02378;10.31755
0.0845;10.32454;0.02366;10.32454
0.0848;10.33075;0.02360;10.33075
0.0851;10.33686;0.02350;10.33686
0.0852;10.34252;0.02329;10.34252
0.0854;10.34864;0.02323;10.34864
0.0855;10.35482;0.02315;10.35482
0.0856;10.36123;0.02325;10.36123
0.0861;10.36677;0.02312;10.36677
0.0863;10.37244;0.02302;10.37244
0.0865;10.37904;0.02296;10.37904
0.0868;10.38487;0.02311;10.38487
0.0871;10.39034;0.02326;10.39034
0.0872;10.39586;0.02318;10.39586
0.0874;10.40174;0.02338;10.40174
0.0876;10.40738;0.02359;10.40738
0.0878;10.41441;0.02361;10.41441
0.0880;10.42076;0.02359;10.42076
0.0882;10.42752;0.02360;10.42752
0.0883;10.43276;0.02386;10.43276
0.0885;10.43833;0.02392;10.43833
0.0886;10.44493;0.02390;10.44493
0.0887;10.45021;0.02393;10.45021
0.0888;10.45879;0.02396;10.45879
0.0890;10.46446;0.02417;10.46446
0.0892;10.47025;0.02437;10.47025
0.0894;10.47601;0.02453;10.47601
0.0896;10.48114;0.02448;10.48114
0.0899;10.48738;0.02459;10.48738
0.0901;10.49389;0.02461;10.49389
0.0903;10.49969;0.02489;10.49969
0.0906;10.50577;0.02494;10.50577
0.0910;10.51123;0.02493;10.51123
0.0912;10.51639;0.02506;10.51639
0.0913;10.52153;0.02510;10.52153
0.0916;10.52747;0.02516;10.52747
0.0918;10.53282;0.02516;10.53282
0.0920;10.53831;0.02516;10.53831
0.0922;10.54352;0.02540;10.54352
0.0923;10.54862;0.02526;10.54862
0.0926;10.55438;0.02540;10.55438
0.0928;10.55975;0.02553;10.55975
0.0930;10.56567;0.02555;10.56567
0.0931;10.57262;0.02558;10.57262
0.0933;10.57805;0.02562;10.57805
0.0934;10.58453;0.02581;10.58453
0.0935;10.59147;0.02575;10.59147
0.0937;10.59681;0.02583;10.59681
0.0938;10.60260;0.02600;10.60260
0.0941;10.60869;0.02618;10.60869
0.0944;10.61374;0.02631;10.61374
0.0945;10.61941;0.02645;10.61941
0.0948;10.62522;0.02668;10.62522
0.0951;10.63028;0.02665;10.63028
0.0953;10.63552;0.02700;10.63552
0.0956;10.64104;0.02708;10.64104
0.0958;10.64703;0.02724;10.64703
0.0962;10.65257;0.02734;10.65257
0.0964;10.65783;0.02736;10.65783
0.0966;10.66289;0.02721;10.66289
0.0968;10.66972;0.02724;10.66972
0.0969;10.67628;0.02723;10.67628
0.0970;10.68146;0.02733;10.68146
0.0971;10.68839;0.02717;10.68839
0.0973;10.69358;0.02723;10.69358
0.0976;10.69964;0.02707;10.69964
0.0978;10.70602;0.02697;10.70602
0.0980;10.71154;0.02709;10.71154
0.0982;10.71656;0.02713;10.71656
0.0984;10.72257;0.02716;10.72257
0.0986;10.72877;0.02723;10.72877
0.0987;10.73383;0.02710;10.73383
0.0989;10.73891;0.02707;10.73891
0.0991;10.74471;0.02730;10.74471
0.0993;10.74999;0.02711;10.74999
0.0996;10.75546;0.02716;10.75546
0.0997;10.76092;0.02723;10.76092
0.0998;10.76597;0.02729;10.76597
0.1000;10.77195;0.02722;10.77195
0.1002;10.77832;0.02735;10.77832
0.1004;10.78352;0.02723;10.78352
0.1006;10.78935;0.02728;10.78935
0.1008;10.79640;0.02728;10.79640
0.1012;10.80242;0.02718;10.80242
0.1014;10.80749;0.02723;10.80749
0.1017;10.81381;0.02708;10.81381
0.1019;10.82028;0.02712;10.82028
0.1021;10.82586;0.02704;10.82586
0.1026;10.83284;0.02695;10.83284
0.1028;10.83835;0.02706;10.83835
0.1030;10.84427;0.02685;10.84427
0.1032;10.84980;0.02699;10.84980
0.1035;10.85513;0.02689;10.85513
0.1038;10.86195;0.02697;10.86195
0.1039;10.86887;0.02669;10.86887
0.1043;10.87593;0.02656;10.87593
0.1043;10.88242;0.02645;10.88242
0.1045;10.88878;0.02631;10.88878
0.1047;10.89440;0.02648;10.89440
0.1052;10.90057;0.02614;10.90057
0.1057;10.90587;0.02591;10.90587
0.1059;10.91133;0.02586;10.91133
0.1061;10.91651;0.02588;10.91651
0.1063;10.92370;0.02582;10.92370
0.1065;10.92894;0.02580;10.92894
0.1067;10.93626;0.02562;10.93626
0.1071;10.94262;0.02561;10.94262
0.1073;10.94897;0.02572;10.94897
0.1077;10.95482;0.02558;10.95482
0.1078;10.96038;0.02536;10.96038
0.1080;10.96549;0.02541;10.96549
0.1083;10.97227;0.02541;10.97227
0.1086;10.98021;0.02530;10.98021
0.1088;10.98644;0.02519;10.98644
0.1090;10.99293;0.02511;10.99293
0.1092;10.99835;0.02511;10.99835
0.1095;11.00430;0.02497;11.00430
0.1096;11.01029;0.02482;11.01029
0.1099;11.01713;0.02461;11.01713
0.1102;11.02307;0.02451;11.02307
0.1105;11.02812;0.02427;11.02812
0.1110;11.03398;0.02397;11.03398
0.1113;11.04059;0.02370;11.04059
0.1115;11.04610;0.02352;11.04610
0.1119;11.05307;0.02337;11.05307
0.1124;11.05814;0.02341;11.05814
0.1127;11.06500;0.02333;11.06500
0.1130;11.07041;0.02325;11.07041
0.1133;11.07558;0.02322;11.07558
0.1136;11.08076;0.02336;11.08076
0.1137;11.08584;0.02335;11.08584
0.1140;11.09205;0.02355;11.09205
0.1143;11.09778;0.02358;11.09778
0.1145;11.10434;0.02364;11.10434
0.1147;11.10992;0.02369;11.10992
0.1149;11.11584;0.02370;11.11584
0.1150;11.12144;0.02372;11.12144
0.1152;11.12786;0.02393;11.12786
0.1156;11.13334;0.02410;11.13334
0.1158;11.13906;0.02416;11.13906
0.1160;11.14430;0.02436;11.14430
0.1163;11.15113;0.02427;11.15113
0.1167;11.15851;0.02459;11.15851
0.1175;11.16440;0.02454;11.16440
0.1180;11.16972;0.02420;11.16972
0.1182;11.17579;0.02434;11.17579
0.1184;11.18239;0.02421;11.18239
0.1187;11.18784;0.02391;11.18784
0.1188;11.19471;0.02402;11.19471
0.1190;11.20123;0.02392;11.20123
0.1193;11.20795;0.02372;11.20795
0.1196;11.21306;0.02349;11.21306
0.1199;11.21916;0.02334;11.21916
0.1201;11.22485;0.02325;11.22485
0.1204;11.22997;0.02296;11.22997
0.1208;11.23562;0.02266;11.23562
0.1211;11.24093;0.02278;11.24093
0.1212;11.24674;0.02258;11.24674
0.1216;11.25290;0.02250;11.25290
0.1218;11.25839;0.02246;11.25839
0.1219;11.26388;0.02241;11.26388
0.1223;11.26951;0.02235;11.26951
0.1225;11.27506;0.02227;11.27506
0.1227;11.28202;0.02215;11.28202
0.1230;11.28819;0.02207;11.28819
0.1235;11.29363;0.02179;11.29363
0.1238;11.29875;0.02159;11.29875
0.1242;11.30401;0.02156;11.30401
0.1245;11.30937;0.02158;11.30937
0.1247;11.31594;0.02154;11.31594
0.1250;11.32160;0.02150;11.32160
0.1252;11.32735;0.02148;11.32735
0.1256;11.33255;0.02140;11.33255
0.1257;11.33542;0.02121;11.33542
0.1258;11.33769;0.02135;11.33769
0.1259;11.34346;0.02143;11.34346
0.1261;11.34894;0.02143;11.34894
0.1264;11.35463;0.02146;11.35463
0.1267;11.35999;0.02156;11.35999
0.1271;11.36646;0.02174;11.36646
0.1272;11.37159;0.02189;11.37159
0.1275;11.37792;0.02190;11.37792
0.1277;11.38332;0.02192;11.38332
0.1278;11.38912;0.02210;11.38912
0.1280;11.39511;0.02211;11.39511
0.1282;11.40075;0.02221;11.40075
0.1285;11.40614;0.02229;11.40614
0.1288;11.41196;0.02256;11.41196
0.1293;11.41764;0.02266;11.41764
0.1295;11.42465;0.02279;11.42465
0.1297;11.43189;0.02285;11.43189
0.1298;11.43721;0.02316;11.43721
0.1299;11.44576;0.02302;11.44576
0.1301;11.45235;0.02316;11.45235
0.1302;11.45841;0.02324;11.45841
0.1303;11.46396;0.02305;11.46396
0.1304;11.46973;0.02324;11.46973
0.1307;11.47497;0.02338;11.47497
0.1313;11.48037;0.02344;11.48037
0.1320;11.48570;0.02369;11.48570
0.1325;11.49076;0.02393;11.49076
0.1328;11.49623;0.02415;11.49623
0.1336;11.50182;0.02451;11.50182
0.1338;11.50897;0.02479;11.50897
0.1340;11.51419;0.02496;11.51419
0.1341;11.52081;0.02488;11.52081
0.1343;11.52704;0.02504;11.52704
0.1344;11.53234;0.02510;11.53234
0.1346;11.53744;0.02526;11.53744
0.1349;11.54410;0.02539;11.54410
0.1352;11.54915;0.02555;11.54915
0.1355;11.55458;0.02552;11.55458
0.1356;11.56021;0.02560;11.56021
0.1357;11.56528;0.02551;11.56528
0.1359;11.57197;0.02575;11.57197
0.1361;11.57791;0.02574;11.57791
0.1364;11.58369;0.02568;11.58369
0.1369;11.58883;0.02579;11.58883
0.1373;11.59390;0.02603;11.59390
0.1376;11.59894;0.02592;11.59894
0.1379;11.60451;0.02609;11.60451
0.1381;11.61090;0.02601;11.61090
0.1384;11.61685;0.02601;11.61685
0.1389;11.62248;0.02608;11.62248
0.1392;11.62748;0.02616;11.62748
0.1393;11.63349;0.02611;11.63349
0.1396;11.63922;0.02604;11.63922
0.1398;11.64436;0.02614;11.64436
0.1401;11.65007;0.02621;11.65007
0.1408;11.65574;0.02610;11.65574
0.1410;11.66110;0.02621;11.66110
0.1414;11.66617;0.02611;11.66617
0.1419;11.67127;0.02590;11.67127
0.1424;11.67655;0.02572;11.67655
0.1426;11.68193;0.02567;11.68193
0.1427;11.68784;0.02555;11.68784
0.1428;11.69368;0.02547;11.69368
0.1429;11.69960;0.02552;11.69960
0.1432;11.70513;0.02538;11.70513
0.1435;11.71112;0.02532;11.71112
0.1437;11.71823;0.02520;11.71823
0.1439;11.72378;0.02506;11.72378
0.1443;11.73058;0.02479;11.73058
0.1444;11.73670;0.02489;11.73670
0.1447;11.74218;0.02458;11.74218
0.1449;11.74732;0.02460;11.74732
0.1453;11.75428;0.02433;11.75428
0.1457;11.75966;0.02401;11.75966
0.1460;11.76581;0.02399;11.76581
0.1466;11.77146;0.02361;11.77146
0.1468;11.77649;0.02365;11.77649
0.1470;11.78237;0.02364;11.78237
0.1471;11.78840;0.02348;11.78840
0.1474;11.79394;0.02340;11.79394
0.1478;11.79961;0.02338;11.79961
0.1481;11.80549;0.02330;11.80549
0.1485;11.81190;0.02313;11.81190
0.1487;11.81756;0.02320;11.81756
0.1494;11.82278;0.02290;11.82278
0.1497;11.82913;0.02272;11.82913
0.1499;11.83511;0.02259;11.83511
0.1504;11.84025;0.02241;11.84025
0.1506;11.84559;0.02222;11.84559
0.1509;11.85064;0.02238;11.85064
0.1511;11.85663;0.02212;11.85663
0.1515;11.86229;0.02202;11.86229
0.1521;11.86740;0.02201;11.86740
0.1526;11.87377;0.02223;11.87377
0.1530;11.87886;0.02241;11.87886
0.1534;11.88430;0.02228;11.88430
0.1536;11.88999;0.02251;11.88999
0.1537;11.89547;0.02244;11.89547
0.1539;11.90111;0.02268;11.90111
0.1541;11.90678;0.02264;11.90678
0.1544;11.91190;0.02300;11.91190
0.1547;11.91846;0.02313;11.91846
0.1549;11.92392;0.02309;11.92392
0.1551;11.92911;0.02301;11.92911
0.1556;11.93430;0.02335;11.93430
0.1562;11.93984;0.02361;11.93984
0.1567;11.94490;0.02361;11.94490
0.1571;11.95013;0.02369;11.95013
0.1575;11.95702;0.02383;11.95702
0.1582;11.96224;0.02354;11.96224
0.1585;11.96830;0.02367;11.96830
0.1588;11.97411;0.02358;11.97411
0.1590;11.97933;0.02344;11.97933
0.1593;11.98504;0.02335;11.98504
0.1599;11.99061;0.02300;11.99061
0.1603;11.99591;0.02261;11.99591
0.1606;12.00002;0.02233;12.00002
