Part protocol
Network name;Part_Maxymos_2_MP-001_2017-03-14_14-22-25_RMS_bl_trans150obr_tepy_000026_OK.csv
Protocol version;3.01.00






Result information
Date;2017/03/14
Time;14:22:25
Cycle number;26
Total result;OK
Triggered switch signals
Part serial number;RMS_bl_trans150obr_tepy_000026
Measuring program name;Bl_trans
Measuring program number;1
Zero X offset;0.000;mm
Tara Y offset;0.0000;RMS









Process values - curve related
Block X;12.003;mm;XMIN-X;7.642;mm
Block Y;0.0225;RMS;XMIN-Y;0.0282;RMS
Ref X;-;mm;XMAX-X;12.003;mm
Peak-peak X;4.361;mm;XMAX-Y;0.0225;RMS
Peak-peak Y;0.6956;RMS;YMIN-X;11.162;mm
;;;YMIN-Y;0.0201;RMS
;;;YMAX-X;8.470;mm
;;;YMAX-Y;0.7157;RMS

Process values - EO related;Result;Entry;Exit;XMIN-X;XMIN-Y;XMAX-X;XMAX-Y;YMIN-Y;YMIN-X;YMAX-Y;YMAX-X;Calculated result;NOK cause;Violation X;Violation Y;Ref X;Ref Y;Switch force;Y-Diff;X-Diff;Force deviation ratio;Click ratio;Contact edge
;;;;mm;RMS;mm;RMS;RMS;mm;RMS;mm;-;-;-;-;-;-;-;-;-;-;-;-;
EO-01;OK;8.211;;;;;;;;;;;;;;;;
EO-02;OK;;;;;;;;;;;0.2592;;;;;;
EO-03;OK;;;;;;;;;;;0.6956;;;;;;
EO-04;None;
EO-05;None;
EO-06;None;
EO-07;None;
EO-08;None;
EO-09;None;
EO-10;None;


















Evaluation objects settings;Reaction;X reference;Y-Reference;XMin;XMax;YMin;YMax;Entry;Exit;Curve part;Catch zone X;Catch zone Y;EO Name;EO description;Re-entry ignored;Generate statistics;X-Hysteresis;Y-Hysteresis;Down sampling rate;Calc limit min;Calc limit max;Grad limit min;Grad limit max;Hyst limit min;Hyst limit max;Speed limit min;Speed limit max;Time limit min;Time limit max;Is curve inside box;GetRef type;CalcInput1 | dx;CalcInput2 | dx;Calc operation;Average limit min;Average limit max;Break max bending;Visualization offset X;Visualization offset Y;-;-;-
EO-01;LINE-X;ABSOLUTE;ABSOLUTE;8.037;8.473;0.1000;;BELOW;NONE;ANY;+50%;+0%;;;FALSE;TRUE;0.0;0.0;1;;;;;;;;;;;;;;;;;;;0.000;0.0000;;;
EO-02;CALC;ABSOLUTE;ABSOLUTE;-0.409;;1.5166;;NONE;NONE;ANY;+0%;+0%;;;FALSE;TRUE;0.0;0.0;1;0.000000;0.500000;;;;;;;;;;;PV_TABLE_CURVE | YMAX-X;EO-01 | ENTRY;Subtraction;;;;0.000;0.0000;;;
EO-03;CALC;ABSOLUTE;ABSOLUTE;10.518;;1.3638;;NONE;NONE;ANY;+0%;+0%;;;FALSE;TRUE;0.0;0.0;1;0.000000;1.000000;;;;;;;;;;;PV_TABLE_CURVE | YMAX-Y;PV_TABLE_CURVE | YMIN-Y;Subtraction;;;;0.000;0.0000;;;
EO-04;OFF
EO-05;OFF
EO-06;OFF
EO-07;OFF
EO-08;OFF
EO-09;OFF
EO-10;OFF



















Switch signal settings;Channel;Threshold at;;Trigger from;Reference;Latch until
Type S1;X;10.370;mm;LEFT;ABSOLUTE;None
Type S2;OFF

















Device information
Device type;maXYmos TL
Device type number;5877A0
Device serial number;4915792
Firmware version;1.1.12 (r21150-TL_v1.1.x)
-
-
-
-
-
IP Address;192.168.21.20
Network name;Maxymos 2
Profibus address;10
-
-
-
Station name;Maxymos 2
Company name;
Comment;











Channel-X settings
Use the settings from global setup;True
Sensor-X type;Potentiometer
Unit;mm
Used range from;8.000;mm
Used range to;12.000;mm
Decimal places;XXX.XXX
Scaling by;Teach-In
Point 1;-0.380;mm;16.488;%
Point 2;72.105;mm;72.105;%
Invert signal;FALSE
Filter;OFF
Test point;0.000;mm
Tolerance;0.010;mm
Enable sensor test by dig-input;FALSE
Zoom from;0.000;mm
Zoom to;100.000;mm
Master Measurement Enable;FALSE
Master Measurement Nominal Position;0.000;mm
Encoder interpolation factor;-
Encoder electrical interface;-
Encoder referencing type;-
Encoder referencing edge;-
Encoder pulses per minute;-
Encoder use every nth-mark;-
Reference;-
Encoder reference points;-
Encoder coding;-
Encoder width;-
Encoder optimization;-
Encoder clock frequency;-
Termination resistor;-








Channel-Y settings
Use the settings from global setup;True
Sensor-Y type;Â±10V
Unit;RMS
Used range from;0.0000;RMS
Used range to;10.0000;RMS
Decimal places;XX.XXXX
Scaling by;Calibration Sheet
Sensitivity;1000.0000;RMS;-4.000;mV/V
Zero point;0.0000;RMS;0.000;mV/V
Invert signal;FALSE
Filter;OFF
Piezo reset;-
Test point;0.0000;RMS
Tolerance;0.0000;RMS
Enable sensor test by dig-input;FALSE
Zoom from;0.0000;RMS
Zoom to;1000.0000;RMS












Cycle control settings
Use the settings from global setup;True
Measuring function;Y (X)
Delta-X;User-Defined;0.00500;mm
START condition;Threshold-X;7.500;mm;Trigger from;LEFT
STOP condition;Threshold-X;12.000;mm;Trigger from;LEFT
Cycle time out;2.00;s
Turning point RIGHT;YMAX
Turning point LEFT;NONE
Cut curve at;NONE










Evaluation settings
Capture only first NOK-EO for statistics;False
Hysteresis X;0.0;%
Hysteresis Y;0.0;%






Trigger Y settings
Threshold at;1.2839;RMS
Value X at TRIGGER Y;0.000;mm
Approach from;BELOW






Block settings
Value X at block;XMAX
Block at;0.000;mm







Measuring curve
Number of measuring points;734
Ref. Graph on;ABSOLUTE
Curve segments;0;137;136;734;


Time;X(ABSOLUTE);Y;X (ABSOLUTE)


s;mm;RMS;mm
0.0000;7.64193;0.02816;7.64193
0.0003;7.65045;0.03074;7.65045
0.0004;7.65560;0.03155;7.65560
0.0006;7.66071;0.03253;7.66071
0.0008;7.66657;0.03376;7.66657
0.0010;7.67187;0.03476;7.67187
0.0012;7.67725;0.03615;7.67725
0.0014;7.68330;0.03750;7.68330
0.0016;7.68834;0.03811;7.68834
0.0019;7.69463;0.03902;7.69463
0.0021;7.70033;0.03963;7.70033
0.0022;7.70717;0.03974;7.70717
0.0023;7.71264;0.04004;7.71264
0.0025;7.71800;0.04034;7.71800
0.0028;7.72387;0.04057;7.72387
0.0032;7.72979;0.04078;7.72979
0.0035;7.73584;0.04076;7.73584
0.0041;7.74216;0.04062;7.74216
0.0044;7.74729;0.04047;7.74729
0.0047;7.75301;0.04029;7.75301
0.0048;7.75876;0.04004;7.75876
0.0054;7.76419;0.03961;7.76419
0.0060;7.76951;0.03883;7.76951
0.0063;7.77512;0.03874;7.77512
0.0065;7.78167;0.03842;7.78167
0.0068;7.78756;0.03833;7.78756
0.0071;7.79383;0.03857;7.79383
0.0073;7.79909;0.03976;7.79909
0.0076;7.80526;0.04309;7.80526
0.0079;7.81045;0.04802;7.81045
0.0084;7.81552;0.05575;7.81552
0.0086;7.82230;0.06008;7.82230
0.0088;7.82895;0.06227;7.82895
0.0091;7.83454;0.06484;7.83454
0.0094;7.84012;0.06722;7.84012
0.0096;7.84524;0.06857;7.84524
0.0099;7.85082;0.06963;7.85082
0.0101;7.85648;0.07003;7.85648
0.0103;7.86385;0.07044;7.86385
0.0106;7.86975;0.07060;7.86975
0.0107;7.87677;0.07063;7.87677
0.0109;7.88180;0.07042;7.88180
0.0114;7.88810;0.06949;7.88810
0.0116;7.89400;0.06916;7.89400
0.0123;7.89919;0.06677;7.89919
0.0127;7.90543;0.06514;7.90543
0.0130;7.91133;0.06433;7.91133
0.0132;7.91725;0.06323;7.91725
0.0135;7.92427;0.06197;7.92427
0.0137;7.93060;0.06132;7.93060
0.0138;7.93617;0.06080;7.93617
0.0143;7.94230;0.05890;7.94230
0.0146;7.94869;0.05752;7.94869
0.0151;7.95604;0.05544;7.95604
0.0152;7.96189;0.05480;7.96189
0.0155;7.96705;0.05384;7.96705
0.0156;7.97210;0.05336;7.97210
0.0158;7.97736;0.05231;7.97736
0.0161;7.98278;0.05112;7.98278
0.0162;7.98820;0.05032;7.98820
0.0167;7.99484;0.04879;7.99484
0.0168;8.00084;0.04819;8.00084
0.0170;8.00644;0.04770;8.00644
0.0172;8.01198;0.04700;8.01198
0.0173;8.01911;0.04655;8.01911
0.0175;8.02724;0.04594;8.02724
0.0177;8.03468;0.04562;8.03468
0.0179;8.04121;0.04502;8.04121
0.0180;8.04812;0.04475;8.04812
0.0181;8.05678;0.04419;8.05678
0.0183;8.06364;0.04397;8.06364
0.0184;8.06983;0.04366;8.06983
0.0186;8.07590;0.04321;8.07590
0.0187;8.08130;0.04298;8.08130
0.0188;8.08720;0.04273;8.08720
0.0189;8.09472;0.04235;8.09472
0.0192;8.10109;0.04171;8.10109
0.0194;8.10672;0.04105;8.10672
0.0196;8.11426;0.04071;8.11426
0.0199;8.12155;0.04011;8.12155
0.0201;8.12686;0.03978;8.12686
0.0204;8.13216;0.03930;8.13216
0.0205;8.13951;0.03885;8.13951
0.0206;8.14505;0.03861;8.14505
0.0207;8.15134;0.03845;8.15134
0.0208;8.15884;0.03840;8.15884
0.0209;8.16398;0.03815;8.16398
0.0210;8.17107;0.03794;8.17107
0.0212;8.17651;0.03763;8.17651
0.0213;8.18373;0.03752;8.18373
0.0215;8.19411;0.03729;8.19411
0.0216;8.20009;0.03808;8.20009
0.0218;8.20523;0.06222;8.20523
0.0219;8.20914;0.08512;8.20914
0.0220;8.21277;0.10980;8.21277
0.0221;8.21560;0.13636;8.21560
0.0222;8.21787;0.16342;8.21787
0.0223;8.22124;0.19028;8.22124
0.0224;8.22420;0.21641;8.22420
0.0225;8.22931;0.24148;8.22931
0.0226;8.23127;0.26557;8.23127
0.0227;8.23669;0.28867;8.23669
0.0228;8.24248;0.31094;8.24248
0.0229;8.24982;0.33201;8.24982
0.0230;8.25794;0.35184;8.25794
0.0231;8.26356;0.37094;8.26356
0.0232;8.27198;0.38951;8.27198
0.0233;8.27747;0.40863;8.27747
0.0234;8.28204;0.42945;8.28204
0.0235;8.28308;0.45056;8.28308
0.0236;8.28843;0.47130;8.28843
0.0237;8.29552;0.49119;8.29552
0.0238;8.30149;0.51021;8.30149
0.0239;8.31124;0.52843;8.31124
0.0240;8.31940;0.54582;8.31940
0.0240;8.32458;0.55422;8.32458
0.0240;8.33027;0.56245;8.33027
0.0241;8.33800;0.57801;8.33800
0.0243;8.34327;0.59962;8.34327
0.0245;8.35126;0.62484;8.35126
0.0246;8.35945;0.63614;8.35945
0.0247;8.36703;0.64644;8.36703
0.0248;8.37433;0.65595;8.37433
0.0249;8.38219;0.66459;8.38219
0.0250;8.39069;0.67593;8.39069
0.0251;8.40067;0.68252;8.40067
0.0252;8.40629;0.68859;8.40629
0.0254;8.41135;0.70052;8.41135
0.0257;8.41777;0.70894;8.41777
0.0258;8.42546;0.71124;8.42546
0.0258;8.43105;0.71220;8.43105
0.0259;8.43614;0.71306;8.43614
0.0259;8.44180;0.71378;8.44180
0.0260;8.44775;0.71435;8.44775
0.0260;8.45337;0.71473;8.45337
0.0261;8.46215;0.71548;8.46215
0.0262;8.47048;0.71569;8.47048
0.0264;8.47611;0.71535;8.47611
0.0265;8.48260;0.71421;8.48260
0.0266;8.48849;0.71219;8.48849
0.0268;8.49501;0.70967;8.49501
0.0269;8.50108;0.70749;8.50108
0.0270;8.50762;0.70502;8.50762
0.0271;8.51313;0.70250;8.51313
0.0272;8.51958;0.69954;8.51958
0.0273;8.52636;0.69645;8.52636
0.0274;8.53333;0.69322;8.53333
0.0275;8.53950;0.68984;8.53950
0.0276;8.54517;0.68595;8.54517
0.0277;8.55315;0.67828;8.55315
0.0280;8.56022;0.66742;8.56022
0.0282;8.56534;0.65832;8.56534
0.0284;8.57236;0.64884;8.57236
0.0285;8.57898;0.64408;8.57898
0.0286;8.58427;0.63895;8.58427
0.0288;8.59152;0.62882;8.59152
0.0288;8.59942;0.62363;8.59942
0.0290;8.60505;0.61570;8.60505
0.0294;8.60900;0.59433;8.60900
0.0298;8.61473;0.57250;8.61473
0.0299;8.62069;0.56414;8.62069
0.0301;8.62599;0.55309;8.62599
0.0305;8.62846;0.53112;8.62846
0.0309;8.63219;0.50924;8.63219
0.0312;8.63778;0.49327;8.63778
0.0314;8.64284;0.48003;8.64284
0.0318;8.64368;0.45903;8.64368
0.0322;8.64268;0.43882;8.64268
0.0325;8.64806;0.42155;8.64806
0.0329;8.65243;0.40028;8.65243
0.0334;8.65114;0.37985;8.65114
0.0338;8.65619;0.36013;8.65619
0.0340;8.66200;0.35169;8.66200
0.0341;8.66715;0.34554;8.66715
0.0345;8.67284;0.33143;8.67284
0.0350;8.67692;0.31014;8.67692
0.0353;8.68281;0.29927;8.68281
0.0355;8.69049;0.29216;8.69049
0.0356;8.69585;0.28862;8.69585
0.0357;8.70170;0.28363;8.70170
0.0358;8.71025;0.28009;8.71025
0.0359;8.71612;0.27685;8.71612
0.0360;8.72440;0.27361;8.72440
0.0361;8.73097;0.27038;8.73097
0.0362;8.73653;0.26730;8.73653
0.0364;8.74421;0.26081;8.74421
0.0365;8.75047;0.25615;8.75047
0.0366;8.75690;0.25340;8.75690
0.0368;8.76327;0.24740;8.76327
0.0370;8.76941;0.24151;8.76941
0.0371;8.77515;0.23864;8.77515
0.0373;8.78149;0.23332;8.78149
0.0374;8.78866;0.22943;8.78866
0.0375;8.79474;0.22674;8.79474
0.0376;8.80039;0.22394;8.80039
0.0377;8.80566;0.22158;8.80566
0.0379;8.81348;0.21770;8.81348
0.0380;8.81882;0.21524;8.81882
0.0381;8.82565;0.21168;8.82565
0.0382;8.83468;0.20923;8.83468
0.0384;8.84158;0.20570;8.84158
0.0385;8.84737;0.20103;8.84737
0.0388;8.85383;0.19572;8.85383
0.0389;8.85931;0.19343;8.85931
0.0390;8.86625;0.19146;8.86625
0.0391;8.87142;0.18847;8.87142
0.0392;8.87795;0.18627;8.87795
0.0393;8.88419;0.18417;8.88419
0.0395;8.89281;0.18116;8.89281
0.0396;8.89796;0.17927;8.89796
0.0396;8.90337;0.17727;8.90337
0.0398;8.91095;0.17362;8.91095
0.0399;8.91704;0.17170;8.91704
0.0401;8.92240;0.16795;8.92240
0.0404;8.92898;0.16363;8.92898
0.0407;8.93519;0.15857;8.93519
0.0408;8.94193;0.15694;8.94193
0.0409;8.94858;0.15457;8.94858
0.0410;8.95655;0.15286;8.95655
0.0411;8.96434;0.15136;8.96434
0.0412;8.97121;0.14958;8.97121
0.0413;8.97749;0.14817;8.97749
0.0416;8.98411;0.14279;8.98411
0.0419;8.98963;0.13945;8.98963
0.0420;8.99473;0.13719;8.99473
0.0422;9.00116;0.13368;9.00116
0.0424;9.00759;0.13135;9.00759
0.0427;9.01454;0.12716;9.01454
0.0429;9.01969;0.12536;9.01969
0.0431;9.02541;0.12283;9.02541
0.0432;9.03196;0.12110;9.03196
0.0434;9.03712;0.11874;9.03712
0.0436;9.04264;0.11645;9.04264
0.0437;9.04780;0.11482;9.04780
0.0439;9.05286;0.11320;9.05286
0.0440;9.05829;0.11221;9.05829
0.0442;9.06373;0.11006;9.06373
0.0444;9.06886;0.10733;9.06886
0.0446;9.07464;0.10535;9.07464
0.0448;9.07983;0.10358;9.07983
0.0451;9.08552;0.10054;9.08552
0.0456;9.09151;0.09600;9.09151
0.0457;9.09751;0.09437;9.09751
0.0460;9.10386;0.09218;9.10386
0.0464;9.11085;0.08854;9.11085
0.0466;9.11754;0.08743;9.11754
0.0467;9.12310;0.08646;9.12310
0.0468;9.13049;0.08492;9.13049
0.0470;9.13586;0.08394;9.13586
0.0472;9.14167;0.08242;9.14167
0.0474;9.14848;0.08092;9.14848
0.0475;9.15559;0.08002;9.15559
0.0477;9.16091;0.07903;9.16091
0.0478;9.16740;0.07847;9.16740
0.0479;9.17252;0.07739;9.17252
0.0480;9.17801;0.07632;9.17801
0.0481;9.18422;0.07573;9.18422
0.0483;9.19122;0.07434;9.19122
0.0486;9.19691;0.07255;9.19691
0.0489;9.20266;0.07111;9.20266
0.0490;9.20950;0.07033;9.20950
0.0493;9.21635;0.06829;9.21635
0.0495;9.22281;0.06762;9.22281
0.0496;9.22947;0.06696;9.22947
0.0497;9.23499;0.06657;9.23499
0.0498;9.24251;0.06581;9.24251
0.0500;9.24849;0.06490;9.24849
0.0503;9.25373;0.06351;9.25373
0.0504;9.25925;0.06250;9.25925
0.0506;9.26446;0.06191;9.26446
0.0507;9.27127;0.06121;9.27127
0.0510;9.27635;0.06009;9.27635
0.0512;9.28164;0.05917;9.28164
0.0514;9.28692;0.05834;9.28692
0.0515;9.29340;0.05789;9.29340
0.0516;9.29917;0.05734;9.29917
0.0520;9.30440;0.05591;9.30440
0.0522;9.31087;0.05498;9.31087
0.0524;9.31626;0.05429;9.31626
0.0527;9.32263;0.05345;9.32263
0.0528;9.32865;0.05280;9.32865
0.0530;9.33499;0.05243;9.33499
0.0533;9.34033;0.05129;9.34033
0.0535;9.34577;0.05080;9.34577
0.0536;9.35118;0.05023;9.35118
0.0538;9.35847;0.04979;9.35847
0.0540;9.36353;0.04883;9.36353
0.0542;9.37041;0.04826;9.37041
0.0544;9.37545;0.04760;9.37545
0.0546;9.38143;0.04692;9.38143
0.0548;9.38808;0.04639;9.38808
0.0550;9.39326;0.04564;9.39326
0.0550;9.39839;0.04538;9.39839
0.0551;9.40518;0.04514;9.40518
0.0552;9.41155;0.04475;9.41155
0.0554;9.41763;0.04413;9.41763
0.0555;9.42395;0.04378;9.42395
0.0557;9.42981;0.04313;9.42981
0.0561;9.43569;0.04201;9.43569
0.0564;9.44111;0.04146;9.44111
0.0566;9.44644;0.04105;9.44644
0.0568;9.45182;0.04059;9.45182
0.0569;9.45698;0.03999;9.45698
0.0571;9.46355;0.03990;9.46355
0.0572;9.46923;0.03968;9.46923
0.0574;9.47555;0.03930;9.47555
0.0575;9.48191;0.03901;9.48191
0.0577;9.48747;0.03879;9.48747
0.0579;9.49370;0.03819;9.49370
0.0581;9.49874;0.03767;9.49874
0.0584;9.50404;0.03714;9.50404
0.0586;9.51025;0.03679;9.51025
0.0588;9.51635;0.03632;9.51635
0.0590;9.52137;0.03602;9.52137
0.0592;9.52778;0.03565;9.52778
0.0596;9.53319;0.03502;9.53319
0.0597;9.53832;0.03506;9.53832
0.0599;9.54423;0.03475;9.54423
0.0602;9.54978;0.03415;9.54978
0.0605;9.55703;0.03371;9.55703
0.0607;9.56403;0.03346;9.56403
0.0608;9.56927;0.03341;9.56927
0.0609;9.57603;0.03326;9.57603
0.0610;9.58125;0.03301;9.58125
0.0611;9.58642;0.03280;9.58642
0.0612;9.59271;0.03273;9.59271
0.0614;9.59948;0.03266;9.59948
0.0618;9.60721;0.03197;9.60721
0.0619;9.61254;0.03189;9.61254
0.0621;9.61919;0.03157;9.61919
0.0625;9.62532;0.03107;9.62532
0.0628;9.63059;0.03088;9.63059
0.0631;9.63627;0.03077;9.63627
0.0633;9.64283;0.03062;9.64283
0.0635;9.64798;0.03048;9.64798
0.0636;9.65445;0.03038;9.65445
0.0637;9.65946;0.03033;9.65946
0.0639;9.66710;0.03017;9.66710
0.0641;9.67332;0.03019;9.67332
0.0642;9.67842;0.03016;9.67842
0.0644;9.68377;0.03007;9.68377
0.0646;9.68898;0.03004;9.68898
0.0647;9.69469;0.03010;9.69469
0.0650;9.70036;0.02987;9.70036
0.0651;9.70615;0.03001;9.70615
0.0653;9.71241;0.02998;9.71241
0.0654;9.72069;0.02999;9.72069
0.0655;9.72793;0.02987;9.72793
0.0656;9.73352;0.02997;9.73352
0.0657;9.74054;0.02999;9.74054
0.0658;9.74575;0.02976;9.74575
0.0659;9.75143;0.02981;9.75143
0.0661;9.75892;0.02994;9.75892
0.0664;9.76611;0.02984;9.76611
0.0665;9.77173;0.02995;9.77173
0.0667;9.77676;0.02973;9.77676
0.0669;9.78185;0.02973;9.78185
0.0671;9.78983;0.02963;9.78983
0.0674;9.79627;0.02961;9.79627
0.0677;9.80276;0.02958;9.80276
0.0678;9.80895;0.02962;9.80895
0.0680;9.81480;0.02957;9.81480
0.0681;9.82035;0.02960;9.82035
0.0682;9.82699;0.02941;9.82699
0.0683;9.83386;0.02923;9.83386
0.0686;9.83894;0.02906;9.83894
0.0690;9.84524;0.02901;9.84524
0.0693;9.85034;0.02898;9.85034
0.0694;9.85569;0.02885;9.85569
0.0696;9.86179;0.02893;9.86179
0.0698;9.86725;0.02873;9.86725
0.0700;9.87306;0.02831;9.87306
0.0702;9.87821;0.02848;9.87821
0.0703;9.88474;0.02821;9.88474
0.0705;9.89124;0.02805;9.89124
0.0707;9.89664;0.02806;9.89664
0.0708;9.90212;0.02773;9.90212
0.0710;9.90824;0.02774;9.90824
0.0712;9.91409;0.02756;9.91409
0.0717;9.91944;0.02721;9.91944
0.0720;9.92550;0.02709;9.92550
0.0721;9.93201;0.02692;9.93201
0.0723;9.93743;0.02671;9.93743
0.0724;9.94318;0.02658;9.94318
0.0726;9.94929;0.02656;9.94929
0.0727;9.95459;0.02645;9.95459
0.0729;9.96215;0.02629;9.96215
0.0731;9.96782;0.02609;9.96782
0.0734;9.97358;0.02566;9.97358
0.0735;9.97925;0.02560;9.97925
0.0737;9.98455;0.02538;9.98455
0.0739;9.99074;0.02513;9.99074
0.0742;9.99702;0.02507;9.99702
0.0745;10.00252;0.02490;10.00252
0.0747;10.00863;0.02468;10.00863
0.0749;10.01378;0.02459;10.01378
0.0751;10.02049;0.02457;10.02049
0.0753;10.02687;0.02437;10.02687
0.0755;10.03237;0.02425;10.03237
0.0756;10.03751;0.02419;10.03751
0.0758;10.04352;0.02407;10.04352
0.0759;10.05063;0.02402;10.05063
0.0761;10.05741;0.02408;10.05741
0.0762;10.06412;0.02399;10.06412
0.0764;10.07277;0.02393;10.07277
0.0766;10.07880;0.02390;10.07880
0.0767;10.08544;0.02380;10.08544
0.0769;10.09053;0.02392;10.09053
0.0770;10.09657;0.02390;10.09657
0.0772;10.10406;0.02399;10.10406
0.0774;10.10989;0.02411;10.10989
0.0776;10.11505;0.02402;10.11505
0.0779;10.12038;0.02413;10.12038
0.0781;10.12651;0.02420;10.12651
0.0786;10.13254;0.02424;10.13254
0.0788;10.14110;0.02415;10.14110
0.0789;10.14782;0.02439;10.14782
0.0790;10.15542;0.02437;10.15542
0.0791;10.16137;0.02439;10.16137
0.0793;10.16671;0.02462;10.16671
0.0795;10.17173;0.02457;10.17173
0.0797;10.17688;0.02463;10.17688
0.0803;10.18292;0.02486;10.18292
0.0804;10.18967;0.02519;10.18967
0.0805;10.19642;0.02507;10.19642
0.0807;10.20158;0.02524;10.20158
0.0809;10.20658;0.02527;10.20658
0.0813;10.21202;0.02539;10.21202
0.0815;10.21862;0.02543;10.21862
0.0816;10.22541;0.02539;10.22541
0.0818;10.23157;0.02574;10.23157
0.0821;10.23821;0.02573;10.23821
0.0824;10.24380;0.02607;10.24380
0.0826;10.24953;0.02602;10.24953
0.0827;10.25637;0.02608;10.25637
0.0828;10.26307;0.02612;10.26307
0.0829;10.27055;0.02614;10.27055
0.0831;10.27692;0.02621;10.27692
0.0834;10.28230;0.02638;10.28230
0.0836;10.28880;0.02647;10.28880
0.0839;10.29426;0.02662;10.29426
0.0842;10.30074;0.02671;10.30074
0.0844;10.30577;0.02669;10.30577
0.0846;10.31176;0.02683;10.31176
0.0848;10.31723;0.02697;10.31723
0.0850;10.32461;0.02690;10.32461
0.0851;10.33031;0.02710;10.33031
0.0853;10.33557;0.02697;10.33557
0.0856;10.34109;0.02711;10.34109
0.0857;10.34615;0.02709;10.34615
0.0859;10.35218;0.02737;10.35218
0.0861;10.35835;0.02756;10.35835
0.0863;10.36386;0.02754;10.36386
0.0866;10.36988;0.02782;10.36988
0.0868;10.37703;0.02769;10.37703
0.0871;10.38253;0.02792;10.38253
0.0872;10.38813;0.02781;10.38813
0.0875;10.39320;0.02790;10.39320
0.0876;10.39901;0.02795;10.39901
0.0878;10.40471;0.02805;10.40471
0.0880;10.41135;0.02802;10.41135
0.0881;10.41718;0.02810;10.41718
0.0883;10.42340;0.02804;10.42340
0.0886;10.43079;0.02816;10.43079
0.0887;10.43763;0.02798;10.43763
0.0889;10.44295;0.02805;10.44295
0.0890;10.44979;0.02808;10.44979
0.0891;10.45539;0.02789;10.45539
0.0893;10.46202;0.02788;10.46202
0.0894;10.46715;0.02805;10.46715
0.0897;10.47333;0.02764;10.47333
0.0899;10.48059;0.02772;10.48059
0.0902;10.48579;0.02772;10.48579
0.0904;10.49093;0.02762;10.49093
0.0907;10.49659;0.02761;10.49659
0.0909;10.50289;0.02731;10.50289
0.0912;10.50861;0.02737;10.50861
0.0914;10.51402;0.02726;10.51402
0.0916;10.52062;0.02718;10.52062
0.0920;10.52750;0.02706;10.52750
0.0922;10.53393;0.02701;10.53393
0.0924;10.53982;0.02680;10.53982
0.0926;10.54652;0.02670;10.54652
0.0929;10.55190;0.02663;10.55190
0.0932;10.55695;0.02650;10.55695
0.0933;10.56264;0.02653;10.56264
0.0935;10.56957;0.02635;10.56957
0.0937;10.57648;0.02636;10.57648
0.0939;10.58185;0.02615;10.58185
0.0940;10.58780;0.02626;10.58780
0.0941;10.59312;0.02614;10.59312
0.0942;10.59844;0.02616;10.59844
0.0944;10.60404;0.02620;10.60404
0.0947;10.60954;0.02580;10.60954
0.0951;10.61691;0.02566;10.61691
0.0952;10.62281;0.02552;10.62281
0.0955;10.62911;0.02523;10.62911
0.0957;10.63547;0.02518;10.63547
0.0959;10.64154;0.02497;10.64154
0.0962;10.64717;0.02490;10.64717
0.0964;10.65255;0.02463;10.65255
0.0967;10.65830;0.02445;10.65830
0.0970;10.66349;0.02443;10.66349
0.0971;10.66889;0.02416;10.66889
0.0972;10.67493;0.02406;10.67493
0.0972;10.68005;0.02406;10.68005
0.0973;10.68550;0.02414;10.68550
0.0974;10.69060;0.02406;10.69060
0.0976;10.69630;0.02395;10.69630
0.0978;10.70171;0.02396;10.70171
0.0981;10.70761;0.02394;10.70761
0.0983;10.71569;0.02394;10.71569
0.0986;10.72081;0.02389;10.72081
0.0988;10.72583;0.02382;10.72583
0.0990;10.73337;0.02370;10.73337
0.0992;10.73923;0.02360;10.73923
0.0995;10.74708;0.02368;10.74708
0.0996;10.75209;0.02351;10.75209
0.1000;10.75913;0.02339;10.75913
0.1002;10.76664;0.02345;10.76664
0.1004;10.77297;0.02332;10.77297
0.1005;10.77941;0.02342;10.77941
0.1008;10.78652;0.02314;10.78652
0.1010;10.79189;0.02316;10.79189
0.1012;10.79815;0.02318;10.79815
0.1015;10.80435;0.02314;10.80435
0.1019;10.81049;0.02308;10.81049
0.1022;10.81622;0.02326;10.81622
0.1023;10.82300;0.02311;10.82300
0.1026;10.82911;0.02324;10.82911
0.1029;10.83449;0.02336;10.83449
0.1031;10.84028;0.02321;10.84028
0.1034;10.84561;0.02369;10.84561
0.1036;10.85090;0.02369;10.85090
0.1039;10.85746;0.02392;10.85746
0.1041;10.86453;0.02387;10.86453
0.1042;10.87054;0.02399;10.87054
0.1044;10.87702;0.02414;10.87702
0.1045;10.88251;0.02417;10.88251
0.1047;10.88790;0.02430;10.88790
0.1050;10.89332;0.02413;10.89332
0.1054;10.89912;0.02427;10.89912
0.1057;10.90540;0.02428;10.90540
0.1059;10.91079;0.02435;10.91079
0.1061;10.91795;0.02445;10.91795
0.1063;10.92399;0.02437;10.92399
0.1065;10.93037;0.02439;10.93037
0.1068;10.93593;0.02438;10.93593
0.1070;10.94274;0.02440;10.94274
0.1073;10.94964;0.02434;10.94964
0.1077;10.95529;0.02441;10.95529
0.1079;10.96137;0.02445;10.96137
0.1082;10.96663;0.02473;10.96663
0.1083;10.97273;0.02447;10.97273
0.1085;10.97876;0.02454;10.97876
0.1088;10.98407;0.02452;10.98407
0.1090;10.99122;0.02434;10.99122
0.1091;10.99692;0.02426;10.99692
0.1094;11.00343;0.02434;11.00343
0.1096;11.00957;0.02409;11.00957
0.1098;11.01557;0.02412;11.01557
0.1103;11.02083;0.02363;11.02083
0.1105;11.02696;0.02366;11.02696
0.1109;11.03294;0.02323;11.03294
0.1113;11.03909;0.02304;11.03909
0.1116;11.04447;0.02281;11.04447
0.1118;11.05067;0.02274;11.05067
0.1121;11.05575;0.02239;11.05575
0.1126;11.06183;0.02217;11.06183
0.1128;11.06784;0.02217;11.06784
0.1131;11.07338;0.02173;11.07338
0.1135;11.07876;0.02124;11.07876
0.1136;11.08387;0.02134;11.08387
0.1138;11.09013;0.02119;11.09013
0.1141;11.09575;0.02111;11.09575
0.1143;11.10234;0.02095;11.10234
0.1145;11.10885;0.02087;11.10885
0.1146;11.11629;0.02083;11.11629
0.1148;11.12142;0.02088;11.12142
0.1150;11.12668;0.02079;11.12668
0.1152;11.13322;0.02063;11.13322
0.1155;11.13952;0.02050;11.13952
0.1157;11.14476;0.02043;11.14476
0.1162;11.15051;0.02021;11.15051
0.1167;11.15684;0.02048;11.15684
0.1173;11.16167;0.02012;11.16167
0.1173;11.16200;0.02025;11.16200
0.1178;11.16748;0.02027;11.16748
0.1182;11.17375;0.02028;11.17375
0.1183;11.18015;0.02030;11.18015
0.1186;11.18517;0.02044;11.18517
0.1188;11.19044;0.02053;11.19044
0.1190;11.19565;0.02072;11.19565
0.1192;11.20086;0.02051;11.20086
0.1194;11.20752;0.02049;11.20752
0.1198;11.21254;0.02073;11.21254
0.1200;11.21776;0.02064;11.21776
0.1205;11.22409;0.02110;11.22409
0.1208;11.22910;0.02126;11.22910
0.1211;11.23569;0.02144;11.23569
0.1214;11.24186;0.02169;11.24186
0.1216;11.24720;0.02197;11.24720
0.1219;11.25276;0.02193;11.25276
0.1221;11.25799;0.02220;11.25799
0.1222;11.26313;0.02207;11.26313
0.1225;11.26840;0.02234;11.26840
0.1228;11.27367;0.02247;11.27367
0.1230;11.27907;0.02258;11.27907
0.1231;11.28553;0.02278;11.28553
0.1235;11.29055;0.02289;11.29055
0.1238;11.29581;0.02288;11.29581
0.1242;11.30181;0.02325;11.30181
0.1246;11.30710;0.02340;11.30710
0.1250;11.31360;0.02362;11.31360
0.1252;11.31860;0.02383;11.31860
0.1255;11.32406;0.02406;11.32406
0.1257;11.32910;0.02418;11.32910
0.1259;11.33546;0.02424;11.33546
0.1261;11.34303;0.02413;11.34303
0.1262;11.34826;0.02451;11.34826
0.1265;11.35378;0.02453;11.35378
0.1268;11.35940;0.02473;11.35940
0.1272;11.36675;0.02488;11.36675
0.1275;11.37212;0.02505;11.37212
0.1278;11.37917;0.02513;11.37917
0.1281;11.38418;0.02526;11.38418
0.1283;11.39021;0.02517;11.39021
0.1284;11.39524;0.02540;11.39524
0.1285;11.40086;0.02546;11.40086
0.1289;11.40678;0.02570;11.40678
0.1294;11.41226;0.02567;11.41226
0.1297;11.41787;0.02583;11.41787
0.1300;11.42292;0.02606;11.42292
0.1301;11.43053;0.02608;11.43053
0.1302;11.43638;0.02617;11.43638
0.1303;11.44304;0.02628;11.44304
0.1304;11.44860;0.02625;11.44860
0.1305;11.45418;0.02644;11.45418
0.1306;11.46182;0.02618;11.46182
0.1307;11.46741;0.02634;11.46741
0.1309;11.47302;0.02641;11.47302
0.1314;11.47829;0.02653;11.47829
0.1317;11.48337;0.02639;11.48337
0.1322;11.48909;0.02629;11.48909
0.1327;11.49418;0.02623;11.49418
0.1331;11.49928;0.02614;11.49928
0.1337;11.50541;0.02586;11.50541
0.1339;11.51095;0.02594;11.51095
0.1341;11.51794;0.02578;11.51794
0.1342;11.52346;0.02584;11.52346
0.1343;11.52920;0.02570;11.52920
0.1346;11.53459;0.02545;11.53459
0.1348;11.54002;0.02521;11.54002
0.1352;11.54515;0.02504;11.54515
0.1353;11.55034;0.02491;11.55034
0.1355;11.55628;0.02482;11.55628
0.1359;11.56353;0.02474;11.56353
0.1360;11.57037;0.02463;11.57037
0.1362;11.57644;0.02461;11.57644
0.1367;11.58271;0.02422;11.58271
0.1370;11.58805;0.02400;11.58805
0.1374;11.59345;0.02366;11.59345
0.1377;11.59929;0.02380;11.59929
0.1380;11.60572;0.02346;11.60572
0.1382;11.61247;0.02330;11.61247
0.1387;11.61767;0.02292;11.61767
0.1390;11.62330;0.02274;11.62330
0.1393;11.62851;0.02280;11.62851
0.1396;11.63351;0.02276;11.63351
0.1398;11.63943;0.02289;11.63943
0.1402;11.64565;0.02253;11.64565
0.1405;11.65118;0.02249;11.65118
0.1409;11.65791;0.02235;11.65791
0.1415;11.66434;0.02229;11.66434
0.1420;11.67136;0.02196;11.67136
0.1424;11.67692;0.02177;11.67692
0.1428;11.68229;0.02174;11.68229
0.1430;11.69079;0.02168;11.69079
0.1431;11.69863;0.02176;11.69863
0.1433;11.70368;0.02189;11.70368
0.1436;11.70896;0.02201;11.70896
0.1438;11.71447;0.02203;11.71447
0.1440;11.72027;0.02181;11.72027
0.1442;11.72545;0.02194;11.72545
0.1445;11.73072;0.02222;11.73072
0.1448;11.73599;0.02235;11.73599
0.1450;11.74110;0.02244;11.74110
0.1452;11.74775;0.02253;11.74775
0.1455;11.75326;0.02291;11.75326
0.1460;11.75859;0.02319;11.75859
0.1463;11.76406;0.02322;11.76406
0.1469;11.76957;0.02356;11.76957
0.1472;11.77500;0.02352;11.77500
0.1473;11.78076;0.02367;11.78076
0.1475;11.78738;0.02381;11.78738
0.1477;11.79244;0.02385;11.79244
0.1481;11.79751;0.02413;11.79751
0.1485;11.80423;0.02406;11.80423
0.1487;11.80972;0.02404;11.80972
0.1491;11.81566;0.02406;11.81566
0.1496;11.82118;0.02375;11.82118
0.1499;11.82676;0.02364;11.82676
0.1502;11.83274;0.02335;11.83274
0.1505;11.83810;0.02318;11.83810
0.1507;11.84400;0.02302;11.84400
0.1510;11.85010;0.02301;11.85010
0.1511;11.85564;0.02282;11.85564
0.1515;11.86090;0.02259;11.86090
0.1522;11.86640;0.02247;11.86640
0.1526;11.87176;0.02212;11.87176
0.1530;11.87683;0.02195;11.87683
0.1533;11.88248;0.02195;11.88248
0.1535;11.88870;0.02160;11.88870
0.1537;11.89385;0.02183;11.89385
0.1539;11.89896;0.02156;11.89896
0.1541;11.90445;0.02147;11.90445
0.1544;11.91044;0.02140;11.91044
0.1547;11.91603;0.02118;11.91603
0.1549;11.92155;0.02131;11.92155
0.1552;11.92673;0.02102;11.92673
0.1555;11.93178;0.02106;11.93178
0.1562;11.93738;0.02063;11.93738
0.1568;11.94255;0.02064;11.94255
0.1571;11.94790;0.02068;11.94790
0.1576;11.95376;0.02083;11.95376
0.1579;11.95900;0.02081;11.95900
0.1584;11.96412;0.02108;11.96412
0.1588;11.97087;0.02129;11.97087
0.1590;11.97733;0.02139;11.97733
0.1593;11.98273;0.02166;11.98273
0.1600;11.98856;0.02191;11.98856
0.1605;11.99375;0.02223;11.99375
0.1607;11.99886;0.02249;11.99886
0.1608;12.00259;0.02250;12.00259
