Part protocol
Network name;Part_Maxymos_2_MP-001_2017-03-14_14-18-05_RMS_bl_trans150obr_tepy_000019_OK.csv
Protocol version;3.01.00






Result information
Date;2017/03/14
Time;14:18:05
Cycle number;19
Total result;OK
Triggered switch signals
Part serial number;RMS_bl_trans150obr_tepy_000019
Measuring program name;Bl_trans
Measuring program number;1
Zero X offset;0.000;mm
Tara Y offset;0.0000;RMS









Process values - curve related
Block X;12.001;mm;XMIN-X;7.654;mm
Block Y;0.0307;RMS;XMIN-Y;0.0370;RMS
Ref X;-;mm;XMAX-X;12.001;mm
Peak-peak X;4.347;mm;XMAX-Y;0.0307;RMS
Peak-peak Y;0.6660;RMS;YMIN-X;11.680;mm
;;;YMIN-Y;0.0261;RMS
;;;YMAX-X;8.498;mm
;;;YMAX-Y;0.6921;RMS

Process values - EO related;Result;Entry;Exit;XMIN-X;XMIN-Y;XMAX-X;XMAX-Y;YMIN-Y;YMIN-X;YMAX-Y;YMAX-X;Calculated result;NOK cause;Violation X;Violation Y;Ref X;Ref Y;Switch force;Y-Diff;X-Diff;Force deviation ratio;Click ratio;Contact edge
;;;;mm;RMS;mm;RMS;RMS;mm;RMS;mm;-;-;-;-;-;-;-;-;-;-;-;-;
EO-01;OK;8.222;;;;;;;;;;;;;;;;
EO-02;OK;;;;;;;;;;;0.2756;;;;;;
EO-03;OK;;;;;;;;;;;0.6660;;;;;;
EO-04;None;
EO-05;None;
EO-06;None;
EO-07;None;
EO-08;None;
EO-09;None;
EO-10;None;


















Evaluation objects settings;Reaction;X reference;Y-Reference;XMin;XMax;YMin;YMax;Entry;Exit;Curve part;Catch zone X;Catch zone Y;EO Name;EO description;Re-entry ignored;Generate statistics;X-Hysteresis;Y-Hysteresis;Down sampling rate;Calc limit min;Calc limit max;Grad limit min;Grad limit max;Hyst limit min;Hyst limit max;Speed limit min;Speed limit max;Time limit min;Time limit max;Is curve inside box;GetRef type;CalcInput1 | dx;CalcInput2 | dx;Calc operation;Average limit min;Average limit max;Break max bending;Visualization offset X;Visualization offset Y;-;-;-
EO-01;LINE-X;ABSOLUTE;ABSOLUTE;8.037;8.473;0.1000;;BELOW;NONE;ANY;+50%;+0%;;;FALSE;TRUE;0.0;0.0;1;;;;;;;;;;;;;;;;;;;0.000;0.0000;;;
EO-02;CALC;ABSOLUTE;ABSOLUTE;-0.409;;1.5166;;NONE;NONE;ANY;+0%;+0%;;;FALSE;TRUE;0.0;0.0;1;0.000000;0.500000;;;;;;;;;;;PV_TABLE_CURVE | YMAX-X;EO-01 | ENTRY;Subtraction;;;;0.000;0.0000;;;
EO-03;CALC;ABSOLUTE;ABSOLUTE;10.518;;1.3638;;NONE;NONE;ANY;+0%;+0%;;;FALSE;TRUE;0.0;0.0;1;0.000000;1.000000;;;;;;;;;;;PV_TABLE_CURVE | YMAX-Y;PV_TABLE_CURVE | YMIN-Y;Subtraction;;;;0.000;0.0000;;;
EO-04;OFF
EO-05;OFF
EO-06;OFF
EO-07;OFF
EO-08;OFF
EO-09;OFF
EO-10;OFF



















Switch signal settings;Channel;Threshold at;;Trigger from;Reference;Latch until
Type S1;X;10.370;mm;LEFT;ABSOLUTE;None
Type S2;OFF

















Device information
Device type;maXYmos TL
Device type number;5877A0
Device serial number;4915792
Firmware version;1.1.12 (r21150-TL_v1.1.x)
-
-
-
-
-
IP Address;192.168.21.20
Network name;Maxymos 2
Profibus address;10
-
-
-
Station name;Maxymos 2
Company name;
Comment;











Channel-X settings
Use the settings from global setup;True
Sensor-X type;Potentiometer
Unit;mm
Used range from;8.000;mm
Used range to;12.000;mm
Decimal places;XXX.XXX
Scaling by;Teach-In
Point 1;-0.380;mm;16.488;%
Point 2;72.105;mm;72.105;%
Invert signal;FALSE
Filter;OFF
Test point;0.000;mm
Tolerance;0.010;mm
Enable sensor test by dig-input;FALSE
Zoom from;0.000;mm
Zoom to;100.000;mm
Master Measurement Enable;FALSE
Master Measurement Nominal Position;0.000;mm
Encoder interpolation factor;-
Encoder electrical interface;-
Encoder referencing type;-
Encoder referencing edge;-
Encoder pulses per minute;-
Encoder use every nth-mark;-
Reference;-
Encoder reference points;-
Encoder coding;-
Encoder width;-
Encoder optimization;-
Encoder clock frequency;-
Termination resistor;-








Channel-Y settings
Use the settings from global setup;True
Sensor-Y type;Â±10V
Unit;RMS
Used range from;0.0000;RMS
Used range to;10.0000;RMS
Decimal places;XX.XXXX
Scaling by;Calibration Sheet
Sensitivity;1000.0000;RMS;-4.000;mV/V
Zero point;0.0000;RMS;0.000;mV/V
Invert signal;FALSE
Filter;OFF
Piezo reset;-
Test point;0.0000;RMS
Tolerance;0.0000;RMS
Enable sensor test by dig-input;FALSE
Zoom from;0.0000;RMS
Zoom to;1000.0000;RMS












Cycle control settings
Use the settings from global setup;True
Measuring function;Y (X)
Delta-X;User-Defined;0.00500;mm
START condition;Threshold-X;7.500;mm;Trigger from;LEFT
STOP condition;Threshold-X;12.000;mm;Trigger from;LEFT
Cycle time out;2.00;s
Turning point RIGHT;YMAX
Turning point LEFT;NONE
Cut curve at;NONE










Evaluation settings
Capture only first NOK-EO for statistics;False
Hysteresis X;0.0;%
Hysteresis Y;0.0;%






Trigger Y settings
Threshold at;1.2839;RMS
Value X at TRIGGER Y;0.000;mm
Approach from;BELOW






Block settings
Value X at block;XMAX
Block at;0.000;mm







Measuring curve
Number of measuring points;723
Ref. Graph on;ABSOLUTE
Curve segments;0;0;155;155;


Time;X(ABSOLUTE);Y;X (ABSOLUTE)


s;mm;RMS;mm
0.0000;7.65402;0.03705;7.65402
0.0003;7.66528;0.03694;7.66528
0.0004;7.67114;0.03706;7.67114
0.0005;7.67629;0.03699;7.67629
0.0008;7.68306;0.03661;7.68306
0.0011;7.69022;0.03643;7.69022
0.0012;7.69545;0.03632;7.69545
0.0014;7.70237;0.03600;7.70237
0.0014;7.70792;0.03600;7.70792
0.0016;7.71391;0.03587;7.71391
0.0017;7.72040;0.03572;7.72040
0.0019;7.72664;0.03558;7.72664
0.0021;7.73244;0.03579;7.73244
0.0024;7.74009;0.03619;7.74009
0.0024;7.74513;0.03621;7.74513
0.0027;7.75222;0.03654;7.75222
0.0028;7.75783;0.03662;7.75783
0.0031;7.76778;0.03714;7.76778
0.0037;7.77409;0.03786;7.77409
0.0037;7.78047;0.03799;7.78047
0.0041;7.78890;0.03832;7.78890
0.0044;7.79401;0.03836;7.79401
0.0044;7.79937;0.03829;7.79937
0.0048;7.80817;0.03889;7.80817
0.0051;7.81430;0.04663;7.81430
0.0058;7.82168;0.06064;7.82168
0.0068;7.82967;0.07344;7.82967
0.0071;7.83523;0.07554;7.83523
0.0073;7.82940;0.07652;7.82940
0.0075;7.83449;0.07705;7.83449
0.0078;7.83969;0.07747;7.83969
0.0084;7.84535;0.07731;7.84535
0.0090;7.85216;0.07614;7.85216
0.0091;7.86000;0.07582;7.86000
0.0097;7.86671;0.07379;7.86671
0.0100;7.87331;0.07254;7.87331
0.0104;7.88082;0.07123;7.88082
0.0104;7.88688;0.07111;7.88688
0.0109;7.89217;0.06876;7.89217
0.0110;7.89808;0.06843;7.89808
0.0114;7.90720;0.06684;7.90720
0.0118;7.91747;0.06554;7.91747
0.0119;7.91238;0.06485;7.91238
0.0121;7.92339;0.06386;7.92339
0.0122;7.93100;0.06359;7.93100
0.0123;7.93964;0.06296;7.93964
0.0124;7.96584;0.06278;7.96584
0.0124;7.98497;0.06251;7.98497
0.0125;7.96914;0.06232;7.96914
0.0125;7.95088;0.06210;7.95088
0.0128;7.97367;0.06091;7.97367
0.0128;7.98537;0.06072;7.98537
0.0129;7.99077;0.06034;7.99077
0.0130;7.99818;0.06008;7.99818
0.0131;7.99280;0.05985;7.99280
0.0135;7.99804;0.05773;7.99804
0.0138;8.00476;0.05638;8.00476
0.0139;8.01115;0.05609;8.01115
0.0140;8.00233;0.05584;8.00233
0.0140;8.00951;0.05574;8.00951
0.0141;7.98145;0.05524;7.98145
0.0142;7.95022;0.05498;7.95022
0.0142;7.95848;0.05481;7.95848
0.0143;7.94761;0.05456;7.94761
0.0143;7.96339;0.05449;7.96339
0.0144;7.98378;0.05429;7.98378
0.0144;7.96596;0.05407;7.96596
0.0144;7.93298;0.05395;7.93298
0.0145;7.96439;0.05373;7.96439
0.0145;7.99042;0.05351;7.99042
0.0146;7.97705;0.05319;7.97705
0.0147;7.98808;0.05306;7.98808
0.0147;7.99720;0.05287;7.99720
0.0150;8.00372;0.05178;8.00372
0.0151;8.00956;0.05132;8.00956
0.0154;8.01521;0.05027;8.01521
0.0156;8.02099;0.04978;8.02099
0.0157;8.03088;0.04915;8.03088
0.0161;8.03781;0.04800;8.03781
0.0164;8.04334;0.04718;8.04334
0.0165;8.05009;0.04682;8.05009
0.0167;8.05839;0.04609;8.05839
0.0168;8.06345;0.04558;8.06345
0.0171;8.07266;0.04485;8.07266
0.0174;8.08003;0.04406;8.08003
0.0176;8.08609;0.04344;8.08609
0.0177;8.09623;0.04312;8.09623
0.0178;8.10459;0.04299;8.10459
0.0179;8.09802;0.04248;8.09802
0.0180;8.10460;0.04219;8.10460
0.0184;8.11617;0.04111;8.11617
0.0184;8.12466;0.04096;8.12466
0.0185;8.11548;0.04085;8.11548
0.0187;8.12319;0.04029;8.12319
0.0191;8.13367;0.03955;8.13367
0.0191;8.14034;0.03950;8.14034
0.0192;8.13263;0.03935;8.13263
0.0194;8.13946;0.03900;8.13946
0.0196;8.14559;0.03861;8.14559
0.0197;8.15728;0.03822;8.15728
0.0199;8.16347;0.03810;8.16347
0.0200;8.16891;0.03803;8.16891
0.0201;8.17485;0.03792;8.17485
0.0203;8.18070;0.03767;8.18070
0.0204;8.18746;0.03774;8.18746
0.0204;8.19662;0.03750;8.19662
0.0204;8.20163;0.03747;8.20163
0.0208;8.20828;0.03714;8.20828
0.0210;8.21387;0.04304;8.21387
0.0211;8.21894;0.04988;8.21894
0.0212;8.22285;0.07087;8.22285
0.0213;8.22194;0.09563;8.22194
0.0214;8.22171;0.12028;8.22171
0.0215;8.22496;0.14429;8.22496
0.0216;8.23056;0.16756;8.23056
0.0216;8.23485;0.18998;8.23485
0.0217;8.24712;0.21125;8.24712
0.0218;8.25309;0.23167;8.25309
0.0219;8.25821;0.25092;8.25821
0.0220;8.26540;0.26951;8.26540
0.0221;8.27105;0.27896;8.27105
0.0221;8.27638;0.28903;8.27638
0.0222;8.28110;0.31091;8.28110
0.0223;8.28332;0.33428;8.28332
0.0224;8.29049;0.35867;8.29049
0.0225;8.29503;0.38315;8.29503
0.0226;8.30153;0.40726;8.30153
0.0227;8.30873;0.41877;8.30873
0.0227;8.31567;0.43013;8.31567
0.0228;8.32242;0.44133;8.32242
0.0228;8.32812;0.45212;8.32812
0.0229;8.33467;0.47293;8.33467
0.0230;8.34190;0.50170;8.34190
0.0231;8.34720;0.51971;8.34720
0.0233;8.35013;0.54455;8.35013
0.0234;8.35701;0.55990;8.35701
0.0234;8.36276;0.56710;8.36276
0.0235;8.37036;0.58093;8.37036
0.0236;8.37837;0.59362;8.37837
0.0237;8.38816;0.60550;8.38816
0.0238;8.39613;0.61632;8.39613
0.0239;8.40203;0.62608;8.40203
0.0240;8.41225;0.63947;8.41225
0.0241;8.41730;0.64349;8.41730
0.0244;8.42686;0.66377;8.42686
0.0245;8.43326;0.66904;8.43326
0.0246;8.43995;0.67383;8.43995
0.0247;8.44555;0.67781;8.44555
0.0247;8.45197;0.67971;8.45197
0.0248;8.45885;0.68140;8.45885
0.0249;8.46610;0.68552;8.46610
0.0250;8.47168;0.68783;8.47168
0.0252;8.47734;0.69014;8.47734
0.0253;8.48278;0.69160;8.48278
0.0254;8.49304;0.69208;8.49304
0.0254;8.49753;0.69209;8.49753
0.0255;8.50034;0.69194;8.50034
0.0256;8.50623;0.69150;8.50623
0.0257;8.51420;0.69045;8.51420
0.0260;8.52218;0.68663;8.52218
0.0261;8.53258;0.68476;8.53258
0.0261;8.53768;0.68361;8.53768
0.0264;8.54396;0.67724;8.54396
0.0265;8.55134;0.67291;8.55134
0.0266;8.55727;0.66953;8.55727
0.0267;8.56255;0.66625;8.56255
0.0267;8.56810;0.66441;8.56810
0.0271;8.57551;0.65080;8.57551
0.0272;8.58163;0.64461;8.58163
0.0274;8.58829;0.63802;8.58829
0.0276;8.59479;0.62896;8.59479
0.0277;8.60251;0.61941;8.60251
0.0280;8.60934;0.60717;8.60934
0.0283;8.61485;0.59190;8.61485
0.0285;8.61989;0.58175;8.61989
0.0288;8.62277;0.56080;8.62277
0.0290;8.62847;0.55037;8.62847
0.0294;8.63273;0.52917;8.63273
0.0297;8.64012;0.51323;8.64012
0.0301;8.64289;0.49224;8.64289
0.0304;8.65055;0.47431;8.65055
0.0308;8.65586;0.45401;8.65586
0.0312;8.65729;0.43186;8.65729
0.0314;8.66474;0.42473;8.66474
0.0316;8.65965;0.41530;8.65965
0.0317;8.67087;0.40834;8.67087
0.0322;8.67142;0.38814;8.67142
0.0326;8.67487;0.36641;8.67487
0.0331;8.67933;0.34581;8.67933
0.0336;8.68359;0.32456;8.68359
0.0339;8.68940;0.31343;8.68940
0.0341;8.69486;0.30806;8.69486
0.0342;8.70005;0.30286;8.70005
0.0343;8.70666;0.29944;8.70666
0.0344;8.71306;0.29608;8.71306
0.0346;8.71935;0.29101;8.71935
0.0347;8.72545;0.28621;8.72545
0.0348;8.73209;0.28293;8.73209
0.0349;8.73737;0.27804;8.73737
0.0351;8.74441;0.27342;8.74441
0.0352;8.75196;0.26871;8.75196
0.0354;8.76069;0.26425;8.76069
0.0357;8.76573;0.25544;8.76573
0.0358;8.77437;0.25252;8.77437
0.0360;8.77967;0.24683;8.77967
0.0360;8.78551;0.24401;8.78551
0.0362;8.79054;0.23849;8.79054
0.0363;8.79612;0.23587;8.79612
0.0364;8.80696;0.23331;8.80696
0.0367;8.81214;0.22572;8.81214
0.0369;8.81889;0.22198;8.81889
0.0370;8.82516;0.21964;8.82516
0.0371;8.83313;0.21705;8.83313
0.0372;8.83862;0.21477;8.83862
0.0373;8.84508;0.21132;8.84508
0.0374;8.85097;0.20794;8.85097
0.0377;8.86151;0.20121;8.86151
0.0380;8.86985;0.19583;8.86985
0.0381;8.87891;0.19385;8.87891
0.0383;8.88399;0.18971;8.88399
0.0384;8.88907;0.18776;8.88907
0.0384;8.89795;0.18672;8.89795
0.0386;8.90501;0.18193;8.90501
0.0387;8.91666;0.17988;8.91666
0.0389;8.91152;0.17706;8.91152
0.0390;8.91725;0.17542;8.91725
0.0390;8.92225;0.17445;8.92225
0.0391;8.93119;0.17341;8.93119
0.0394;8.93757;0.16719;8.93757
0.0396;8.94315;0.16284;8.94315
0.0397;8.94865;0.16198;8.94865
0.0397;8.95596;0.16115;8.95596
0.0399;8.96291;0.15845;8.96291
0.0400;8.96962;0.15680;8.96962
0.0401;8.97694;0.15516;8.97694
0.0403;8.98237;0.15128;8.98237
0.0404;8.99101;0.14966;8.99101
0.0407;8.99695;0.14528;8.99695
0.0408;9.00198;0.14370;9.00198
0.0410;9.01079;0.14027;9.01079
0.0411;9.01667;0.13948;9.01667
0.0415;9.02196;0.13393;9.02196
0.0417;9.02873;0.13120;9.02873
0.0417;9.03669;0.13052;9.03669
0.0418;9.04258;0.13014;9.04258
0.0419;9.03755;0.12872;9.03755
0.0420;9.04458;0.12632;9.04458
0.0422;9.04994;0.12431;9.04994
0.0423;9.05627;0.12251;9.05627
0.0424;9.06291;0.12193;9.06291
0.0427;9.06993;0.11777;9.06993
0.0429;9.07504;0.11614;9.07504
0.0431;9.08297;0.11375;9.08297
0.0433;9.08914;0.11050;9.08914
0.0437;9.09461;0.10634;9.09461
0.0441;9.10299;0.10268;9.10299
0.0444;9.10814;0.10004;9.10814
0.0447;9.11747;0.09649;9.11747
0.0450;9.12684;0.09380;9.12684
0.0451;9.13715;0.09333;9.13715
0.0454;9.14730;0.09046;9.14730
0.0457;9.15516;0.08787;9.15516
0.0460;9.16331;0.08567;9.16331
0.0462;9.17005;0.08433;9.17005
0.0464;9.17506;0.08326;9.17506
0.0464;9.18379;0.08300;9.18379
0.0467;9.19021;0.08098;9.19021
0.0470;9.19605;0.07884;9.19605
0.0471;9.20286;0.07841;9.20286
0.0474;9.20892;0.07666;9.20892
0.0477;9.21650;0.07506;9.21650
0.0479;9.22171;0.07413;9.22171
0.0480;9.22747;0.07341;9.22747
0.0481;9.23458;0.07292;9.23458
0.0482;9.24130;0.07228;9.24130
0.0483;9.24757;0.07169;9.24757
0.0484;9.25334;0.07117;9.25334
0.0488;9.25969;0.06915;9.25969
0.0491;9.26752;0.06806;9.26752
0.0492;9.27354;0.06719;9.27354
0.0494;9.27919;0.06670;9.27919
0.0497;9.28478;0.06527;9.28478
0.0498;9.29138;0.06477;9.29138
0.0502;9.29730;0.06300;9.29730
0.0504;9.30317;0.06220;9.30317
0.0507;9.30847;0.06111;9.30847
0.0508;9.31517;0.06081;9.31517
0.0510;9.32073;0.06014;9.32073
0.0511;9.32791;0.05962;9.32791
0.0514;9.33466;0.05863;9.33466
0.0517;9.34561;0.05746;9.34561
0.0519;9.34030;0.05686;9.34030
0.0520;9.34564;0.05651;9.34564
0.0522;9.35217;0.05601;9.35217
0.0524;9.35927;0.05542;9.35927
0.0527;9.36577;0.05451;9.36577
0.0530;9.37321;0.05363;9.37321
0.0531;9.37972;0.05326;9.37972
0.0534;9.38500;0.05252;9.38500
0.0536;9.39044;0.05202;9.39044
0.0537;9.39935;0.05174;9.39935
0.0538;9.40598;0.05134;9.40598
0.0540;9.41119;0.05089;9.41119
0.0541;9.41800;0.05050;9.41800
0.0543;9.42390;0.04999;9.42390
0.0544;9.43208;0.04946;9.43208
0.0548;9.43719;0.04865;9.43719
0.0551;9.44556;0.04792;9.44556
0.0552;9.45080;0.04739;9.45080
0.0553;9.45664;0.04696;9.45664
0.0555;9.46281;0.04662;9.46281
0.0557;9.46981;0.04623;9.46981
0.0557;9.47494;0.04606;9.47494
0.0559;9.48082;0.04552;9.48082
0.0561;9.48732;0.04513;9.48732
0.0563;9.49310;0.04463;9.49310
0.0564;9.49920;0.04452;9.49920
0.0567;9.50566;0.04373;9.50566
0.0570;9.51083;0.04306;9.51083
0.0571;9.51737;0.04293;9.51737
0.0575;9.52269;0.04234;9.52269
0.0577;9.52802;0.04186;9.52802
0.0577;9.53389;0.04164;9.53389
0.0581;9.54220;0.04097;9.54220
0.0584;9.55072;0.04037;9.55072
0.0584;9.55804;0.04032;9.55804
0.0585;9.55066;0.04008;9.55066
0.0588;9.55766;0.03981;9.55766
0.0590;9.56589;0.03914;9.56589
0.0591;9.57156;0.03901;9.57156
0.0594;9.57706;0.03843;9.57706
0.0596;9.58288;0.03807;9.58288
0.0597;9.59222;0.03786;9.59222
0.0600;9.59786;0.03760;9.59786
0.0601;9.60316;0.03738;9.60316
0.0604;9.61160;0.03713;9.61160
0.0609;9.61666;0.03680;9.61666
0.0611;9.62610;0.03656;9.62610
0.0617;9.63267;0.03585;9.63267
0.0618;9.63857;0.03568;9.63857
0.0621;9.64467;0.03547;9.64467
0.0623;9.64978;0.03522;9.64978
0.0624;9.65579;0.03516;9.65579
0.0627;9.66092;0.03501;9.66092
0.0627;9.66670;0.03508;9.66670
0.0629;9.67182;0.03483;9.67182
0.0630;9.67745;0.03480;9.67745
0.0633;9.68255;0.03469;9.68255
0.0634;9.68785;0.03473;9.68785
0.0636;9.69388;0.03450;9.69388
0.0637;9.69920;0.03437;9.69920
0.0640;9.70522;0.03429;9.70522
0.0641;9.71194;0.03435;9.71194
0.0642;9.71694;0.03445;9.71694
0.0643;9.72247;0.03447;9.72247
0.0644;9.73124;0.03446;9.73124
0.0646;9.73695;0.03453;9.73695
0.0647;9.74673;0.03454;9.74673
0.0647;9.75185;0.03429;9.75185
0.0650;9.75750;0.03452;9.75750
0.0651;9.76662;0.03439;9.76662
0.0654;9.77646;0.03425;9.77646
0.0657;9.78265;0.03437;9.78265
0.0657;9.78861;0.03425;9.78861
0.0660;9.79621;0.03435;9.79621
0.0661;9.80239;0.03440;9.80239
0.0663;9.80742;0.03441;9.80742
0.0664;9.81462;0.03420;9.81462
0.0666;9.81983;0.03437;9.81983
0.0667;9.82733;0.03432;9.82733
0.0667;9.83244;0.03436;9.83244
0.0671;9.83833;0.03454;9.83833
0.0673;9.84526;0.03453;9.84526
0.0675;9.85149;0.03474;9.85149
0.0677;9.86086;0.03489;9.86086
0.0680;9.86599;0.03501;9.86599
0.0681;9.87114;0.03508;9.87114
0.0684;9.87768;0.03535;9.87768
0.0686;9.88369;0.03529;9.88369
0.0687;9.89054;0.03525;9.89054
0.0688;9.89619;0.03529;9.89619
0.0691;9.90204;0.03540;9.90204
0.0693;9.90751;0.03533;9.90751
0.0694;9.91273;0.03537;9.91273
0.0697;9.91784;0.03533;9.91784
0.0701;9.92301;0.03552;9.92301
0.0704;9.92973;0.03544;9.92973
0.0707;9.93657;0.03514;9.93657
0.0708;9.94181;0.03529;9.94181
0.0710;9.95055;0.03525;9.95055
0.0713;9.95649;0.03505;9.95649
0.0714;9.96476;0.03514;9.96476
0.0717;9.97452;0.03489;9.97452
0.0720;9.98655;0.03502;9.98655
0.0724;9.99237;0.03487;9.99237
0.0727;10.00065;0.03473;10.00065
0.0733;10.00726;0.03455;10.00726
0.0734;10.01238;0.03448;10.01238
0.0737;10.01966;0.03444;10.01966
0.0740;10.02540;0.03447;10.02540
0.0741;10.03326;0.03446;10.03326
0.0744;10.03888;0.03419;10.03888
0.0746;10.04426;0.03416;10.04426
0.0747;10.05267;0.03418;10.05267
0.0748;10.05818;0.03418;10.05818
0.0750;10.06538;0.03416;10.06538
0.0751;10.07225;0.03401;10.07225
0.0753;10.07779;0.03397;10.07779
0.0754;10.08598;0.03389;10.08598
0.0756;10.09102;0.03387;10.09102
0.0757;10.09870;0.03378;10.09870
0.0760;10.10497;0.03369;10.10497
0.0761;10.11236;0.03369;10.11236
0.0764;10.11987;0.03351;10.11987
0.0767;10.12806;0.03329;10.12806
0.0771;10.13488;0.03327;10.13488
0.0774;10.14016;0.03308;10.14016
0.0776;10.14738;0.03296;10.14738
0.0777;10.15892;0.03315;10.15892
0.0778;10.16538;0.03307;10.16538
0.0780;10.17128;0.03274;10.17128
0.0780;10.17866;0.03277;10.17866
0.0787;10.18668;0.03227;10.18668
0.0789;10.17719;0.03204;10.17719
0.0790;10.18234;0.03203;10.18234
0.0790;10.18813;0.03212;10.18813
0.0791;10.19577;0.03195;10.19577
0.0793;10.20167;0.03154;10.20167
0.0794;10.20905;0.03156;10.20905
0.0797;10.21510;0.03126;10.21510
0.0799;10.22034;0.03113;10.22034
0.0801;10.22979;0.03097;10.22979
0.0803;10.23540;0.03068;10.23540
0.0806;10.24148;0.03055;10.24148
0.0807;10.24669;0.03071;10.24669
0.0807;10.25236;0.03065;10.25236
0.0812;10.25990;0.03019;10.25990
0.0814;10.26938;0.03025;10.26938
0.0816;10.27602;0.03007;10.27602
0.0817;10.28182;0.03020;10.28182
0.0820;10.28830;0.03013;10.28830
0.0824;10.29499;0.03012;10.29499
0.0827;10.30193;0.03059;10.30193
0.0831;10.30823;0.03049;10.30823
0.0834;10.31844;0.03061;10.31844
0.0837;10.32509;0.03053;10.32509
0.0840;10.33121;0.03043;10.33121
0.0843;10.33838;0.03058;10.33838
0.0846;10.34388;0.03073;10.34388
0.0847;10.34943;0.03074;10.34943
0.0847;10.35692;0.03068;10.35692
0.0851;10.36469;0.03086;10.36469
0.0853;10.37138;0.03090;10.37138
0.0854;10.37877;0.03084;10.37877
0.0855;10.37355;0.03091;10.37355
0.0857;10.38084;0.03064;10.38084
0.0861;10.38871;0.03053;10.38871
0.0866;10.39542;0.03041;10.39542
0.0867;10.40385;0.03050;10.40385
0.0871;10.40991;0.03063;10.40991
0.0874;10.41852;0.03038;10.41852
0.0874;10.42406;0.03043;10.42406
0.0877;10.42974;0.03049;10.42974
0.0879;10.43533;0.03052;10.43533
0.0880;10.44238;0.03058;10.44238
0.0883;10.44989;0.03065;10.44989
0.0884;10.45831;0.03048;10.45831
0.0885;10.46338;0.03050;10.46338
0.0887;10.46957;0.03033;10.46957
0.0887;10.47538;0.03063;10.47538
0.0891;10.48135;0.03072;10.48135
0.0894;10.48758;0.03106;10.48758
0.0897;10.49268;0.03118;10.49268
0.0899;10.49908;0.03142;10.49908
0.0900;10.50471;0.03155;10.50471
0.0904;10.51256;0.03171;10.51256
0.0907;10.52081;0.03197;10.52081
0.0910;10.52706;0.03209;10.52706
0.0911;10.53273;0.03216;10.53273
0.0913;10.54145;0.03215;10.54145
0.0914;10.54840;0.03219;10.54840
0.0917;10.55472;0.03221;10.55472
0.0920;10.56153;0.03220;10.56153
0.0921;10.56783;0.03213;10.56783
0.0923;10.57706;0.03187;10.57706
0.0924;10.58310;0.03188;10.58310
0.0927;10.58957;0.03180;10.58957
0.0927;10.59550;0.03177;10.59550
0.0930;10.60094;0.03177;10.60094
0.0931;10.60710;0.03176;10.60710
0.0934;10.61441;0.03149;10.61441
0.0937;10.62123;0.03152;10.62123
0.0940;10.62997;0.03110;10.62997
0.0944;10.63498;0.03111;10.63498
0.0947;10.64200;0.03071;10.64200
0.0950;10.64777;0.03058;10.64777
0.0951;10.65369;0.03060;10.65369
0.0954;10.66016;0.03040;10.66016
0.0957;10.66576;0.03007;10.66576
0.0958;10.67232;0.03010;10.67232
0.0959;10.67776;0.02994;10.67776
0.0960;10.68445;0.02999;10.68445
0.0960;10.68947;0.02997;10.68947
0.0963;10.69479;0.02989;10.69479
0.0966;10.70082;0.02966;10.70082
0.0967;10.70661;0.02956;10.70661
0.0971;10.71352;0.02939;10.71352
0.0973;10.71931;0.02928;10.71931
0.0974;10.72532;0.02919;10.72532
0.0977;10.73443;0.02899;10.73443
0.0979;10.74013;0.02886;10.74013
0.0981;10.74695;0.02871;10.74695
0.0983;10.75234;0.02847;10.75234
0.0987;10.76081;0.02844;10.76081
0.0987;10.76698;0.02845;10.76698
0.0990;10.77198;0.02826;10.77198
0.0993;10.77717;0.02810;10.77717
0.0994;10.78510;0.02822;10.78510
0.0994;10.79087;0.02818;10.79087
0.0997;10.79639;0.02824;10.79639
0.1000;10.80268;0.02818;10.80268
0.1004;10.80770;0.02822;10.80770
0.1007;10.81420;0.02799;10.81420
0.1009;10.82000;0.02808;10.82000
0.1012;10.82529;0.02815;10.82529
0.1014;10.83522;0.02817;10.83522
0.1019;10.84134;0.02822;10.84134
0.1020;10.85183;0.02841;10.85183
0.1024;10.85776;0.02814;10.85776
0.1027;10.86665;0.02848;10.86665
0.1027;10.87386;0.02849;10.87386
0.1030;10.88094;0.02850;10.88094
0.1032;10.88749;0.02858;10.88749
0.1033;10.89624;0.02856;10.89624
0.1034;10.90333;0.02878;10.90333
0.1035;10.89788;0.02867;10.89788
0.1040;10.90401;0.02901;10.90401
0.1041;10.90927;0.02889;10.90927
0.1047;10.92042;0.02942;10.92042
0.1047;10.92613;0.02948;10.92613
0.1048;10.92106;0.02947;10.92106
0.1051;10.92869;0.02963;10.92869
0.1054;10.94110;0.02989;10.94110
0.1054;10.94790;0.02977;10.94790
0.1055;10.94081;0.03006;10.94081
0.1060;10.95011;0.03024;10.95011
0.1067;10.95533;0.03066;10.95533
0.1067;10.96556;0.03077;10.96556
0.1074;10.97486;0.03108;10.97486
0.1077;10.97993;0.03115;10.97993
0.1080;10.98705;0.03148;10.98705
0.1080;10.99310;0.03148;10.99310
0.1084;10.99845;0.03176;10.99845
0.1087;11.00721;0.03181;11.00721
0.1087;11.01418;0.03169;11.01418
0.1093;11.02170;0.03196;11.02170
0.1097;11.02735;0.03209;11.02735
0.1100;11.03244;0.03215;11.03244
0.1104;11.03831;0.03192;11.03831
0.1107;11.04671;0.03194;11.04671
0.1112;11.05285;0.03176;11.05285
0.1114;11.06165;0.03186;11.06165
0.1120;11.06667;0.03175;11.06667
0.1120;11.07630;0.03173;11.07630
0.1127;11.08824;0.03182;11.08824
0.1133;11.09459;0.03189;11.09459
0.1134;11.10230;0.03198;11.10230
0.1137;11.10799;0.03199;11.10799
0.1138;11.11312;0.03217;11.11312
0.1139;11.11837;0.03213;11.11837
0.1140;11.12551;0.03205;11.12551
0.1144;11.13201;0.03216;11.13201
0.1146;11.13789;0.03200;11.13789
0.1147;11.14785;0.03200;11.14785
0.1153;11.15863;0.03227;11.15863
0.1154;11.16506;0.03231;11.16506
0.1155;11.15996;0.03221;11.15996
0.1161;11.16958;0.03199;11.16958
0.1162;11.16440;0.03197;11.16440
0.1167;11.17325;0.03185;11.17325
0.1170;11.18074;0.03168;11.18074
0.1173;11.18640;0.03183;11.18640
0.1174;11.19185;0.03181;11.19185
0.1176;11.19717;0.03164;11.19717
0.1177;11.20371;0.03174;11.20371
0.1179;11.20911;0.03167;11.20911
0.1180;11.21648;0.03168;11.21648
0.1184;11.22208;0.03160;11.22208
0.1187;11.23254;0.03171;11.23254
0.1188;11.22499;0.03164;11.22499
0.1189;11.21930;0.03153;11.21930
0.1190;11.22604;0.03151;11.22604
0.1190;11.23310;0.03148;11.23310
0.1194;11.24443;0.03142;11.24443
0.1200;11.25185;0.03084;11.25185
0.1200;11.25810;0.03081;11.25810
0.1204;11.26321;0.03051;11.26321
0.1207;11.27098;0.03009;11.27098
0.1210;11.27695;0.02992;11.27695
0.1212;11.28245;0.02982;11.28245
0.1214;11.29001;0.02966;11.29001
0.1217;11.29504;0.02959;11.29504
0.1221;11.30095;0.02938;11.30095
0.1224;11.30602;0.02903;11.30602
0.1227;11.31432;0.02891;11.31432
0.1231;11.32118;0.02862;11.32118
0.1234;11.32898;0.02848;11.32898
0.1239;11.33460;0.02836;11.33460
0.1240;11.34127;0.02857;11.34127
0.1244;11.34860;0.02849;11.34860
0.1247;11.35487;0.02858;11.35487
0.1247;11.36284;0.02858;11.36284
0.1250;11.36950;0.02867;11.36950
0.1252;11.36414;0.02849;11.36414
0.1254;11.37373;0.02872;11.37373
0.1255;11.36851;0.02859;11.36851
0.1257;11.37821;0.02842;11.37821
0.1260;11.38380;0.02842;11.38380
0.1260;11.39066;0.02837;11.39066
0.1264;11.39714;0.02829;11.39714
0.1267;11.40506;0.02825;11.40506
0.1273;11.41164;0.02822;11.41164
0.1277;11.41678;0.02831;11.41678
0.1280;11.42645;0.02833;11.42645
0.1283;11.43240;0.02864;11.43240
0.1285;11.43865;0.02867;11.43865
0.1286;11.44643;0.02871;11.44643
0.1287;11.45184;0.02879;11.45184
0.1289;11.45781;0.02894;11.45781
0.1290;11.46561;0.02907;11.46561
0.1294;11.47481;0.02920;11.47481
0.1300;11.48124;0.02955;11.48124
0.1307;11.49042;0.02975;11.49042
0.1315;11.49542;0.03025;11.49542
0.1317;11.50384;0.03040;11.50384
0.1319;11.49665;0.03038;11.49665
0.1320;11.50786;0.03036;11.50786
0.1321;11.49929;0.03044;11.49929
0.1324;11.50432;0.03036;11.50432
0.1327;11.51289;0.03042;11.51289
0.1327;11.51908;0.03033;11.51908
0.1331;11.52518;0.03009;11.52518
0.1332;11.53159;0.03008;11.53159
0.1333;11.53818;0.02991;11.53818
0.1337;11.54524;0.02971;11.54524
0.1340;11.55375;0.02955;11.55375
0.1344;11.56106;0.02954;11.56106
0.1346;11.56827;0.02945;11.56827
0.1347;11.57443;0.02945;11.57443
0.1351;11.57985;0.02924;11.57985
0.1353;11.58502;0.02918;11.58502
0.1359;11.59081;0.02854;11.59081
0.1360;11.59790;0.02841;11.59790
0.1364;11.60355;0.02830;11.60355
0.1367;11.61113;0.02812;11.61113
0.1367;11.61652;0.02820;11.61652
0.1374;11.62419;0.02769;11.62419
0.1377;11.63207;0.02746;11.63207
0.1377;11.63835;0.02740;11.63835
0.1380;11.65083;0.02740;11.65083
0.1382;11.64453;0.02742;11.64453
0.1383;11.65014;0.02737;11.65014
0.1387;11.65575;0.02698;11.65575
0.1387;11.66131;0.02688;11.66131
0.1388;11.65556;0.02711;11.65556
0.1393;11.66120;0.02689;11.66120
0.1397;11.66854;0.02676;11.66854
0.1400;11.67504;0.02656;11.67504
0.1407;11.68493;0.02643;11.68493
0.1409;11.68006;0.02613;11.68006
0.1412;11.69135;0.02639;11.69135
0.1413;11.69868;0.02628;11.69868
0.1414;11.70570;0.02626;11.70570
0.1420;11.71374;0.02649;11.71374
0.1420;11.72085;0.02647;11.72085
0.1424;11.72621;0.02643;11.72621
0.1427;11.73516;0.02641;11.73516
0.1431;11.74149;0.02660;11.74149
0.1433;11.74733;0.02663;11.74733
0.1437;11.75266;0.02700;11.75266
0.1440;11.76080;0.02697;11.76080
0.1444;11.76712;0.02716;11.76712
0.1450;11.77460;0.02729;11.77460
0.1453;11.78025;0.02752;11.78025
0.1456;11.78543;0.02760;11.78543
0.1457;11.79221;0.02782;11.79221
0.1460;11.79846;0.02784;11.79846
0.1467;11.80668;0.02808;11.80668
0.1470;11.81216;0.02821;11.81216
0.1474;11.81756;0.02818;11.81756
0.1480;11.82410;0.02845;11.82410
0.1483;11.82943;0.02856;11.82943
0.1489;11.83558;0.02882;11.83558
0.1492;11.84096;0.02885;11.84096
0.1494;11.84683;0.02929;11.84683
0.1497;11.85245;0.02936;11.85245
0.1500;11.85762;0.02951;11.85762
0.1504;11.86388;0.02973;11.86388
0.1507;11.86926;0.02997;11.86926
0.1513;11.87463;0.03018;11.87463
0.1517;11.88085;0.03035;11.88085
0.1520;11.88720;0.03032;11.88720
0.1524;11.89494;0.03032;11.89494
0.1526;11.90102;0.03056;11.90102
0.1527;11.90613;0.03064;11.90613
0.1531;11.91137;0.03066;11.91137
0.1534;11.91709;0.03081;11.91709
0.1537;11.92316;0.03101;11.92316
0.1540;11.92960;0.03104;11.92960
0.1547;11.93561;0.03135;11.93561
0.1553;11.94242;0.03131;11.94242
0.1557;11.94959;0.03129;11.94959
0.1561;11.95494;0.03133;11.95494
0.1565;11.96003;0.03135;11.96003
0.1567;11.96554;0.03113;11.96554
0.1573;11.97104;0.03145;11.97104
0.1574;11.97612;0.03135;11.97612
0.1577;11.98287;0.03148;11.98287
0.1580;11.98999;0.03150;11.98999
0.1587;11.99615;0.03086;11.99615
0.1589;11.98864;0.03100;11.98864
0.1590;11.99751;0.03090;11.99751
0.1591;12.00061;0.03074;12.00061
