Part protocol
Network name;Part_Maxymos_2_MP-001_2017-03-14_14-39-31_RMS_bl_trans150obr_tepy_039_OK.csv
Protocol version;3.01.00






Result information
Date;2017/03/14
Time;14:39:31
Cycle number;39
Total result;OK
Triggered switch signals
Part serial number;RMS_bl_trans150obr_tepy_039
Measuring program name;Bl_trans
Measuring program number;1
Zero X offset;0.000;mm
Tara Y offset;0.0000;RMS









Process values - curve related
Block X;12.001;mm;XMIN-X;7.642;mm
Block Y;0.0232;RMS;XMIN-Y;0.0501;RMS
Ref X;-;mm;XMAX-X;12.001;mm
Peak-peak X;4.359;mm;XMAX-Y;0.0232;RMS
Peak-peak Y;0.5069;RMS;YMIN-X;11.667;mm
;;;YMIN-Y;0.0208;RMS
;;;YMAX-X;8.494;mm
;;;YMAX-Y;0.5278;RMS

Process values - EO related;Result;Entry;Exit;XMIN-X;XMIN-Y;XMAX-X;XMAX-Y;YMIN-Y;YMIN-X;YMAX-Y;YMAX-X;Calculated result;NOK cause;Violation X;Violation Y;Ref X;Ref Y;Switch force;Y-Diff;X-Diff;Force deviation ratio;Click ratio;Contact edge
;;;;mm;RMS;mm;RMS;RMS;mm;RMS;mm;-;-;-;-;-;-;-;-;-;-;-;-;
EO-01;OK;8.226;;;;;;;;;;;;;;;;
EO-02;OK;;;;;;;;;;;0.2685;;;;;;
EO-03;OK;;;;;;;;;;;0.5069;;;;;;
EO-04;None;
EO-05;None;
EO-06;None;
EO-07;None;
EO-08;None;
EO-09;None;
EO-10;None;


















Evaluation objects settings;Reaction;X reference;Y-Reference;XMin;XMax;YMin;YMax;Entry;Exit;Curve part;Catch zone X;Catch zone Y;EO Name;EO description;Re-entry ignored;Generate statistics;X-Hysteresis;Y-Hysteresis;Down sampling rate;Calc limit min;Calc limit max;Grad limit min;Grad limit max;Hyst limit min;Hyst limit max;Speed limit min;Speed limit max;Time limit min;Time limit max;Is curve inside box;GetRef type;CalcInput1 | dx;CalcInput2 | dx;Calc operation;Average limit min;Average limit max;Break max bending;Visualization offset X;Visualization offset Y;-;-;-
EO-01;LINE-X;ABSOLUTE;ABSOLUTE;8.037;8.473;0.1000;;BELOW;NONE;ANY;+50%;+0%;;;FALSE;TRUE;0.0;0.0;1;;;;;;;;;;;;;;;;;;;0.000;0.0000;;;
EO-02;CALC;ABSOLUTE;ABSOLUTE;-0.409;;1.5166;;NONE;NONE;ANY;+0%;+0%;;;FALSE;TRUE;0.0;0.0;1;0.000000;0.500000;;;;;;;;;;;PV_TABLE_CURVE | YMAX-X;EO-01 | ENTRY;Subtraction;;;;0.000;0.0000;;;
EO-03;CALC;ABSOLUTE;ABSOLUTE;10.518;;1.3638;;NONE;NONE;ANY;+0%;+0%;;;FALSE;TRUE;0.0;0.0;1;0.000000;1.000000;;;;;;;;;;;PV_TABLE_CURVE | YMAX-Y;PV_TABLE_CURVE | YMIN-Y;Subtraction;;;;0.000;0.0000;;;
EO-04;OFF
EO-05;OFF
EO-06;OFF
EO-07;OFF
EO-08;OFF
EO-09;OFF
EO-10;OFF



















Switch signal settings;Channel;Threshold at;;Trigger from;Reference;Latch until
Type S1;X;10.370;mm;LEFT;ABSOLUTE;None
Type S2;OFF

















Device information
Device type;maXYmos TL
Device type number;5877A0
Device serial number;4915792
Firmware version;1.1.12 (r21150-TL_v1.1.x)
-
-
-
-
-
IP Address;192.168.21.20
Network name;Maxymos 2
Profibus address;10
-
-
-
Station name;Maxymos 2
Company name;
Comment;











Channel-X settings
Use the settings from global setup;True
Sensor-X type;Potentiometer
Unit;mm
Used range from;8.000;mm
Used range to;12.000;mm
Decimal places;XXX.XXX
Scaling by;Teach-In
Point 1;-0.380;mm;16.488;%
Point 2;72.105;mm;72.105;%
Invert signal;FALSE
Filter;OFF
Test point;0.000;mm
Tolerance;0.010;mm
Enable sensor test by dig-input;FALSE
Zoom from;0.000;mm
Zoom to;100.000;mm
Master Measurement Enable;FALSE
Master Measurement Nominal Position;0.000;mm
Encoder interpolation factor;-
Encoder electrical interface;-
Encoder referencing type;-
Encoder referencing edge;-
Encoder pulses per minute;-
Encoder use every nth-mark;-
Reference;-
Encoder reference points;-
Encoder coding;-
Encoder width;-
Encoder optimization;-
Encoder clock frequency;-
Termination resistor;-








Channel-Y settings
Use the settings from global setup;True
Sensor-Y type;Â±10V
Unit;RMS
Used range from;0.0000;RMS
Used range to;10.0000;RMS
Decimal places;XX.XXXX
Scaling by;Calibration Sheet
Sensitivity;1000.0000;RMS;-4.000;mV/V
Zero point;0.0000;RMS;0.000;mV/V
Invert signal;FALSE
Filter;OFF
Piezo reset;-
Test point;0.0000;RMS
Tolerance;0.0000;RMS
Enable sensor test by dig-input;FALSE
Zoom from;0.0000;RMS
Zoom to;1000.0000;RMS












Cycle control settings
Use the settings from global setup;True
Measuring function;Y (X)
Delta-X;User-Defined;0.00500;mm
START condition;Threshold-X;7.500;mm;Trigger from;LEFT
STOP condition;Threshold-X;12.000;mm;Trigger from;LEFT
Cycle time out;2.00;s
Turning point RIGHT;YMAX
Turning point LEFT;NONE
Cut curve at;NONE










Evaluation settings
Capture only first NOK-EO for statistics;False
Hysteresis X;0.0;%
Hysteresis Y;0.0;%






Trigger Y settings
Threshold at;1.2839;RMS
Value X at TRIGGER Y;0.000;mm
Approach from;BELOW






Block settings
Value X at block;XMAX
Block at;0.000;mm







Measuring curve
Number of measuring points;733
Ref. Graph on;ABSOLUTE
Curve segments;0;138;137;733;


Time;X(ABSOLUTE);Y;X (ABSOLUTE)


s;mm;RMS;mm
0.0000;7.64173;0.05009;7.64173
0.0003;7.64842;0.04904;7.64842
0.0004;7.65364;0.04845;7.65364
0.0005;7.65957;0.04819;7.65957
0.0007;7.66586;0.04777;7.66586
0.0009;7.67251;0.04728;7.67251
0.0011;7.67897;0.04644;7.67897
0.0014;7.68538;0.04580;7.68538
0.0015;7.69053;0.04509;7.69053
0.0017;7.69695;0.04478;7.69695
0.0018;7.70303;0.04446;7.70303
0.0019;7.70833;0.04442;7.70833
0.0021;7.71495;0.04380;7.71495
0.0022;7.72164;0.04320;7.72164
0.0024;7.72665;0.04292;7.72665
0.0025;7.73226;0.04331;7.73226
0.0027;7.73849;0.04356;7.73849
0.0030;7.74459;0.04442;7.74459
0.0031;7.75112;0.04480;7.75112
0.0033;7.75743;0.04525;7.75743
0.0035;7.76359;0.04651;7.76359
0.0038;7.77002;0.04849;7.77002
0.0040;7.77567;0.04964;7.77567
0.0042;7.78229;0.05083;7.78229
0.0046;7.78798;0.05232;7.78798
0.0048;7.79536;0.05262;7.79536
0.0051;7.80170;0.05290;7.80170
0.0053;7.80708;0.05352;7.80708
0.0056;7.81212;0.05533;7.81212
0.0061;7.81726;0.06133;7.81726
0.0065;7.82297;0.06498;7.82297
0.0075;7.82833;0.06925;7.82833
0.0080;7.83353;0.06949;7.83353
0.0085;7.83885;0.06881;7.83885
0.0088;7.84405;0.06810;7.84405
0.0092;7.85051;0.06710;7.85051
0.0096;7.85562;0.06600;7.85562
0.0099;7.86111;0.06498;7.86111
0.0101;7.86714;0.06395;7.86714
0.0105;7.87272;0.06274;7.87272
0.0107;7.87852;0.06175;7.87852
0.0112;7.88487;0.05973;7.88487
0.0113;7.89017;0.05900;7.89017
0.0117;7.89665;0.05754;7.89665
0.0120;7.90178;0.05622;7.90178
0.0126;7.90696;0.05385;7.90696
0.0129;7.91291;0.05296;7.91291
0.0131;7.91978;0.05208;7.91978
0.0132;7.92625;0.05158;7.92625
0.0133;7.93232;0.05105;7.93232
0.0135;7.93746;0.05055;7.93746
0.0137;7.94439;0.04989;7.94439
0.0139;7.95084;0.04896;7.95084
0.0141;7.95602;0.04830;7.95602
0.0144;7.96235;0.04749;7.96235
0.0146;7.96815;0.04661;7.96815
0.0148;7.97599;0.04584;7.97599
0.0151;7.98283;0.04518;7.98283
0.0153;7.98822;0.04453;7.98822
0.0155;7.99387;0.04392;7.99387
0.0157;8.00038;0.04324;8.00038
0.0159;8.00779;0.04272;8.00779
0.0160;8.01291;0.04246;8.01291
0.0162;8.01894;0.04191;8.01894
0.0164;8.02478;0.04123;8.02478
0.0165;8.03058;0.04111;8.03058
0.0168;8.03723;0.04041;8.03723
0.0169;8.04273;0.03983;8.04273
0.0171;8.04892;0.03952;8.04892
0.0172;8.05564;0.03923;8.05564
0.0175;8.06147;0.03884;8.06147
0.0176;8.06710;0.03830;8.06710
0.0178;8.07254;0.03787;8.07254
0.0180;8.07829;0.03737;8.07829
0.0181;8.08410;0.03701;8.08410
0.0183;8.08961;0.03677;8.08961
0.0184;8.09491;0.03622;8.09491
0.0186;8.10234;0.03615;8.10234
0.0190;8.10788;0.03537;8.10788
0.0192;8.11402;0.03512;8.11402
0.0192;8.11908;0.03471;8.11908
0.0196;8.12470;0.03416;8.12470
0.0198;8.13186;0.03385;8.13186
0.0200;8.13732;0.03338;8.13732
0.0201;8.14309;0.03336;8.14309
0.0202;8.14914;0.03311;8.14914
0.0203;8.15734;0.03288;8.15734
0.0204;8.16380;0.03288;8.16380
0.0205;8.16880;0.03256;8.16880
0.0207;8.17444;0.03233;8.17444
0.0208;8.18053;0.03226;8.18053
0.0209;8.18681;0.03214;8.18681
0.0211;8.19380;0.03185;8.19380
0.0213;8.20046;0.03180;8.20046
0.0214;8.20699;0.03152;8.20699
0.0216;8.21209;0.03168;8.21209
0.0219;8.21614;0.05260;8.21614
0.0220;8.22140;0.06686;8.22140
0.0222;8.22375;0.09056;8.22375
0.0223;8.22936;0.11455;8.22936
0.0224;8.23546;0.13007;8.23546
0.0225;8.24299;0.14557;8.24299
0.0226;8.24853;0.16029;8.24853
0.0227;8.25532;0.17466;8.25532
0.0228;8.26199;0.18914;8.26199
0.0229;8.26896;0.20468;8.26896
0.0230;8.27766;0.22140;8.27766
0.0231;8.28438;0.23972;8.28438
0.0232;8.29074;0.25888;8.29074
0.0233;8.29849;0.27820;8.29849
0.0234;8.30529;0.29732;8.30529
0.0235;8.31384;0.32464;8.31384
0.0236;8.32242;0.34213;8.32242
0.0237;8.33116;0.35880;8.33116
0.0238;8.33767;0.37411;8.33767
0.0240;8.34413;0.39562;8.34413
0.0241;8.35434;0.41507;8.35434
0.0241;8.35935;0.42129;8.35935
0.0242;8.36436;0.42731;8.36436
0.0243;8.37250;0.43823;8.37250
0.0244;8.38158;0.44833;8.38158
0.0244;8.38687;0.45317;8.38687
0.0245;8.39445;0.46235;8.39445
0.0246;8.39976;0.46663;8.39976
0.0247;8.40759;0.47463;8.40759
0.0249;8.41345;0.49152;8.41345
0.0251;8.42014;0.50232;8.42014
0.0252;8.42767;0.50680;8.42767
0.0252;8.43347;0.50892;8.43347
0.0253;8.43907;0.51086;8.43907
0.0254;8.44709;0.51429;8.44709
0.0255;8.45624;0.51743;8.45624
0.0256;8.46236;0.52011;8.46236
0.0257;8.46795;0.52221;8.46795
0.0258;8.47322;0.52404;8.47322
0.0259;8.48130;0.52612;8.48130
0.0260;8.48646;0.52690;8.48646
0.0262;8.49442;0.52776;8.49442
0.0263;8.50291;0.52766;8.50291
0.0264;8.50815;0.52721;8.50815
0.0265;8.51532;0.52612;8.51532
0.0266;8.52293;0.52523;8.52293
0.0268;8.53069;0.52327;8.53069
0.0269;8.53796;0.52095;8.53796
0.0271;8.54511;0.51805;8.54511
0.0272;8.55078;0.51485;8.55078
0.0273;8.55730;0.51232;8.55730
0.0275;8.56327;0.50729;8.56327
0.0276;8.56839;0.50446;8.56839
0.0277;8.57470;0.50008;8.57470
0.0279;8.58155;0.49546;8.58155
0.0280;8.58779;0.49045;8.58779
0.0282;8.59506;0.48374;8.59506
0.0283;8.60034;0.48016;8.60034
0.0285;8.60640;0.47469;8.60640
0.0287;8.61169;0.46539;8.61169
0.0291;8.61683;0.45008;8.61683
0.0292;8.62203;0.44417;8.62203
0.0295;8.62836;0.43205;8.62836
0.0298;8.63406;0.41995;8.63406
0.0301;8.64039;0.40781;8.64039
0.0305;8.64579;0.38962;8.64579
0.0311;8.65045;0.36780;8.65045
0.0316;8.65143;0.34647;8.65143
0.0321;8.65219;0.32597;8.65219
0.0324;8.65832;0.31347;8.65832
0.0330;8.66045;0.29291;8.66045
0.0333;8.66584;0.28318;8.66584
0.0339;8.67084;0.26477;8.67084
0.0344;8.67603;0.24877;8.67603
0.0346;8.68171;0.24451;8.68171
0.0348;8.68824;0.23631;8.68824
0.0349;8.69343;0.23349;8.69343
0.0351;8.69900;0.22971;8.69900
0.0352;8.70653;0.22559;8.70653
0.0353;8.71222;0.22329;8.71222
0.0354;8.71764;0.22078;8.71764
0.0355;8.72636;0.21822;8.72636
0.0356;8.73257;0.21589;8.73257
0.0357;8.73764;0.21349;8.73764
0.0359;8.74508;0.21004;8.74508
0.0360;8.75138;0.20777;8.75138
0.0361;8.75852;0.20419;8.75852
0.0363;8.76403;0.19974;8.76403
0.0365;8.77048;0.19526;8.77048
0.0366;8.77575;0.19200;8.77575
0.0368;8.78294;0.18786;8.78294
0.0370;8.78993;0.18480;8.78993
0.0371;8.79587;0.18289;8.79587
0.0372;8.80262;0.17986;8.80262
0.0373;8.80801;0.17797;8.80801
0.0374;8.81414;0.17606;8.81414
0.0375;8.82066;0.17421;8.82066
0.0376;8.82695;0.17128;8.82695
0.0377;8.83332;0.16960;8.83332
0.0378;8.84056;0.16768;8.84056
0.0380;8.84668;0.16411;8.84668
0.0383;8.85321;0.15893;8.85321
0.0385;8.86086;0.15491;8.86086
0.0387;8.86749;0.15238;8.86749
0.0388;8.87452;0.15080;8.87452
0.0389;8.88168;0.14844;8.88168
0.0392;8.88775;0.14455;8.88775
0.0392;8.89295;0.14367;8.89295
0.0393;8.90023;0.14226;8.90023
0.0394;8.90776;0.14098;8.90776
0.0395;8.91345;0.13933;8.91345
0.0396;8.91889;0.13725;8.91889
0.0398;8.92473;0.13434;8.92473
0.0401;8.92994;0.13096;8.92994
0.0403;8.93667;0.12814;8.93667
0.0405;8.94457;0.12539;8.94457
0.0406;8.95259;0.12412;8.95259
0.0407;8.95764;0.12296;8.95764
0.0407;8.96283;0.12217;8.96283
0.0408;8.96882;0.12095;8.96882
0.0409;8.97463;0.11977;8.97463
0.0410;8.98043;0.11794;8.98043
0.0413;8.98565;0.11430;8.98565
0.0415;8.99263;0.11263;8.99263
0.0417;8.99965;0.11035;8.99965
0.0418;9.00503;0.10871;9.00503
0.0422;9.01135;0.10443;9.01135
0.0423;9.01794;0.10302;9.01794
0.0424;9.02332;0.10199;9.02332
0.0426;9.02933;0.10063;9.02933
0.0427;9.03480;0.09897;9.03480
0.0429;9.04017;0.09746;9.04017
0.0431;9.04518;0.09561;9.04518
0.0432;9.05054;0.09415;9.05054
0.0433;9.05847;0.09290;9.05847
0.0435;9.06430;0.09169;9.06430
0.0437;9.07106;0.08945;9.07106
0.0439;9.07635;0.08779;9.07635
0.0442;9.08177;0.08525;9.08177
0.0444;9.08733;0.08360;9.08733
0.0446;9.09411;0.08162;9.09411
0.0450;9.09994;0.07858;9.09994
0.0451;9.10525;0.07769;9.10525
0.0456;9.11054;0.07428;9.11054
0.0457;9.11632;0.07357;9.11632
0.0459;9.12166;0.07229;9.12166
0.0461;9.12920;0.07111;9.12920
0.0462;9.13428;0.07037;9.13428
0.0463;9.13963;0.06944;9.13963
0.0465;9.14492;0.06878;9.14492
0.0467;9.15242;0.06751;9.15242
0.0469;9.16126;0.06595;9.16126
0.0470;9.16754;0.06520;9.16754
0.0472;9.17264;0.06441;9.17264
0.0474;9.17846;0.06350;9.17846
0.0476;9.18500;0.06209;9.18500
0.0479;9.19032;0.06070;9.19032
0.0481;9.19766;0.05981;9.19766
0.0482;9.20388;0.05960;9.20388
0.0484;9.21022;0.05845;9.21022
0.0486;9.21549;0.05771;9.21549
0.0488;9.22114;0.05700;9.22114
0.0489;9.22760;0.05650;9.22760
0.0491;9.23272;0.05575;9.23272
0.0492;9.23991;0.05553;9.23991
0.0492;9.24504;0.05494;9.24504
0.0494;9.25011;0.05460;9.25011
0.0496;9.25512;0.05394;9.25512
0.0497;9.26025;0.05336;9.26025
0.0500;9.26546;0.05254;9.26546
0.0502;9.27167;0.05215;9.27167
0.0504;9.27691;0.05153;9.27691
0.0505;9.28347;0.05105;9.28347
0.0509;9.28901;0.04976;9.28901
0.0511;9.29570;0.04952;9.29570
0.0512;9.30088;0.04908;9.30088
0.0515;9.30629;0.04840;9.30629
0.0516;9.31210;0.04813;9.31210
0.0518;9.31842;0.04763;9.31842
0.0521;9.32407;0.04712;9.32407
0.0523;9.32982;0.04651;9.32982
0.0526;9.33632;0.04595;9.33632
0.0528;9.34216;0.04528;9.34216
0.0530;9.34808;0.04477;9.34808
0.0532;9.35354;0.04440;9.35354
0.0533;9.35990;0.04406;9.35990
0.0535;9.36521;0.04366;9.36521
0.0537;9.37071;0.04323;9.37071
0.0539;9.37606;0.04265;9.37606
0.0540;9.38212;0.04206;9.38212
0.0542;9.38754;0.04161;9.38754
0.0543;9.39374;0.04143;9.39374
0.0544;9.39916;0.04111;9.39916
0.0546;9.40509;0.04079;9.40509
0.0548;9.41018;0.04041;9.41018
0.0550;9.41590;0.03983;9.41590
0.0551;9.42242;0.03950;9.42242
0.0552;9.42778;0.03917;9.42778
0.0556;9.43348;0.03841;9.43348
0.0559;9.44076;0.03778;9.44076
0.0561;9.44671;0.03750;9.44671
0.0562;9.45268;0.03712;9.45268
0.0564;9.45895;0.03693;9.45895
0.0565;9.46617;0.03641;9.46617
0.0567;9.47254;0.03606;9.47254
0.0569;9.47822;0.03582;9.47822
0.0571;9.48492;0.03523;9.48492
0.0573;9.49021;0.03493;9.49021
0.0576;9.49553;0.03440;9.49553
0.0578;9.50228;0.03417;9.50228
0.0580;9.50793;0.03359;9.50793
0.0582;9.51411;0.03332;9.51411
0.0584;9.51993;0.03299;9.51993
0.0587;9.52626;0.03243;9.52626
0.0589;9.53230;0.03217;9.53230
0.0591;9.53810;0.03160;9.53810
0.0593;9.54328;0.03141;9.54328
0.0595;9.54843;0.03100;9.54843
0.0598;9.55435;0.03055;9.55435
0.0600;9.56081;0.03025;9.56081
0.0602;9.56758;0.02990;9.56758
0.0603;9.57284;0.02972;9.57284
0.0604;9.57994;0.02969;9.57994
0.0606;9.58605;0.02947;9.58605
0.0607;9.59216;0.02940;9.59216
0.0609;9.59872;0.02903;9.59872
0.0612;9.60424;0.02892;9.60424
0.0614;9.61041;0.02868;9.61041
0.0618;9.61559;0.02850;9.61559
0.0620;9.62241;0.02839;9.62241
0.0624;9.62895;0.02826;9.62895
0.0626;9.63491;0.02807;9.63491
0.0629;9.64033;0.02785;9.64033
0.0630;9.64672;0.02793;9.64672
0.0631;9.65321;0.02788;9.65321
0.0633;9.65969;0.02781;9.65969
0.0635;9.66765;0.02777;9.66765
0.0635;9.67268;0.02779;9.67268
0.0638;9.67924;0.02768;9.67924
0.0640;9.68508;0.02772;9.68508
0.0641;9.69051;0.02767;9.69051
0.0643;9.69678;0.02735;9.69678
0.0646;9.70418;0.02743;9.70418
0.0647;9.70930;0.02749;9.70930
0.0648;9.71465;0.02732;9.71465
0.0649;9.72078;0.02740;9.72078
0.0650;9.72671;0.02737;9.72671
0.0652;9.73385;0.02747;9.73385
0.0653;9.74015;0.02744;9.74015
0.0655;9.74684;0.02752;9.74684
0.0656;9.75328;0.02755;9.75328
0.0657;9.75877;0.02764;9.75877
0.0659;9.76514;0.02768;9.76514
0.0661;9.77295;0.02776;9.77295
0.0663;9.77898;0.02796;9.77898
0.0665;9.78441;0.02802;9.78441
0.0667;9.78971;0.02798;9.78971
0.0669;9.79586;0.02794;9.79586
0.0671;9.80241;0.02791;9.80241
0.0672;9.80878;0.02799;9.80878
0.0674;9.81620;0.02792;9.81620
0.0675;9.82250;0.02784;9.82250
0.0676;9.82808;0.02790;9.82808
0.0678;9.83314;0.02777;9.83314
0.0682;9.83942;0.02780;9.83942
0.0684;9.84479;0.02784;9.84479
0.0686;9.85058;0.02773;9.85058
0.0687;9.85646;0.02801;9.85646
0.0689;9.86312;0.02772;9.86312
0.0691;9.86823;0.02787;9.86823
0.0694;9.87387;0.02793;9.87387
0.0695;9.88071;0.02792;9.88071
0.0696;9.88610;0.02816;9.88610
0.0698;9.89223;0.02819;9.89223
0.0701;9.89728;0.02799;9.89728
0.0702;9.90317;0.02805;9.90317
0.0704;9.90850;0.02800;9.90850
0.0705;9.91356;0.02802;9.91356
0.0711;9.91905;0.02822;9.91905
0.0713;9.92470;0.02835;9.92470
0.0715;9.93088;0.02847;9.93088
0.0717;9.93738;0.02846;9.93738
0.0718;9.94455;0.02844;9.94455
0.0720;9.95023;0.02847;9.95023
0.0722;9.95615;0.02831;9.95615
0.0723;9.96240;0.02838;9.96240
0.0726;9.96884;0.02838;9.96884
0.0729;9.97632;0.02838;9.97632
0.0731;9.98156;0.02831;9.98156
0.0732;9.98862;0.02821;9.98862
0.0734;9.99368;0.02823;9.99368
0.0737;9.99930;0.02820;9.99930
0.0741;10.00463;0.02799;10.00463
0.0742;10.01040;0.02802;10.01040
0.0744;10.01613;0.02805;10.01613
0.0745;10.02178;0.02808;10.02178
0.0747;10.02702;0.02811;10.02702
0.0749;10.03295;0.02792;10.03295
0.0752;10.04071;0.02810;10.04071
0.0753;10.04619;0.02819;10.04619
0.0754;10.05177;0.02819;10.05177
0.0755;10.05765;0.02835;10.05765
0.0756;10.06487;0.02834;10.06487
0.0757;10.07050;0.02832;10.07050
0.0758;10.07560;0.02842;10.07560
0.0760;10.08119;0.02834;10.08119
0.0762;10.08643;0.02842;10.08643
0.0763;10.09177;0.02844;10.09177
0.0765;10.09843;0.02851;10.09843
0.0767;10.10368;0.02839;10.10368
0.0768;10.10897;0.02852;10.10897
0.0770;10.11460;0.02823;10.11460
0.0772;10.12064;0.02811;10.12064
0.0775;10.12595;0.02806;10.12595
0.0779;10.13130;0.02782;10.13130
0.0781;10.13636;0.02768;10.13636
0.0782;10.14261;0.02769;10.14261
0.0783;10.14987;0.02759;10.14987
0.0784;10.15686;0.02755;10.15686
0.0785;10.16332;0.02749;10.16332
0.0787;10.16994;0.02727;10.16994
0.0789;10.17518;0.02716;10.17518
0.0794;10.18052;0.02639;10.18052
0.0796;10.18659;0.02643;10.18659
0.0798;10.19344;0.02622;10.19344
0.0800;10.19935;0.02603;10.19935
0.0802;10.20485;0.02600;10.20485
0.0804;10.21040;0.02597;10.21040
0.0807;10.21581;0.02563;10.21581
0.0808;10.22165;0.02559;10.22165
0.0810;10.22722;0.02534;10.22722
0.0811;10.23258;0.02529;10.23258
0.0814;10.23909;0.02512;10.23909
0.0816;10.24509;0.02504;10.24509
0.0818;10.25066;0.02488;10.25066
0.0820;10.25643;0.02497;10.25643
0.0822;10.26345;0.02468;10.26345
0.0824;10.27242;0.02453;10.27242
0.0826;10.27849;0.02466;10.27849
0.0829;10.28430;0.02437;10.28430
0.0830;10.29041;0.02437;10.29041
0.0834;10.29597;0.02428;10.29597
0.0838;10.30165;0.02416;10.30165
0.0839;10.30690;0.02420;10.30690
0.0842;10.31266;0.02420;10.31266
0.0843;10.31791;0.02412;10.31791
0.0845;10.32352;0.02427;10.32352
0.0847;10.32874;0.02408;10.32874
0.0849;10.33378;0.02397;10.33378
0.0852;10.34106;0.02406;10.34106
0.0853;10.34780;0.02409;10.34780
0.0856;10.35466;0.02396;10.35466
0.0857;10.36069;0.02394;10.36069
0.0859;10.36652;0.02384;10.36652
0.0863;10.37269;0.02381;10.37269
0.0864;10.37897;0.02380;10.37897
0.0866;10.38420;0.02368;10.38420
0.0870;10.39003;0.02392;10.39003
0.0871;10.39560;0.02400;10.39560
0.0874;10.40169;0.02385;10.40169
0.0875;10.40702;0.02394;10.40702
0.0876;10.41256;0.02393;10.41256
0.0878;10.41815;0.02381;10.41815
0.0880;10.42325;0.02383;10.42325
0.0881;10.42859;0.02379;10.42859
0.0883;10.43405;0.02391;10.43405
0.0884;10.43986;0.02402;10.43986
0.0885;10.44508;0.02398;10.44508
0.0886;10.45039;0.02402;10.45039
0.0887;10.45642;0.02410;10.45642
0.0888;10.46220;0.02399;10.46220
0.0890;10.46772;0.02402;10.46772
0.0891;10.47327;0.02422;10.47327
0.0893;10.47849;0.02440;10.47849
0.0895;10.48349;0.02449;10.48349
0.0898;10.48869;0.02481;10.48869
0.0900;10.49489;0.02474;10.49489
0.0902;10.50125;0.02485;10.50125
0.0906;10.50703;0.02494;10.50703
0.0909;10.51309;0.02524;10.51309
0.0912;10.51867;0.02516;10.51867
0.0913;10.52396;0.02541;10.52396
0.0916;10.53113;0.02540;10.53113
0.0918;10.53625;0.02539;10.53625
0.0920;10.54215;0.02541;10.54215
0.0922;10.54770;0.02545;10.54770
0.0925;10.55343;0.02560;10.55343
0.0928;10.56013;0.02575;10.56013
0.0930;10.56642;0.02565;10.56642
0.0931;10.57298;0.02559;10.57298
0.0933;10.57994;0.02552;10.57994
0.0934;10.58590;0.02549;10.58590
0.0935;10.59186;0.02545;10.59186
0.0936;10.59808;0.02532;10.59808
0.0939;10.60386;0.02522;10.60386
0.0941;10.60922;0.02526;10.60922
0.0944;10.61514;0.02514;10.61514
0.0946;10.62038;0.02519;10.62038
0.0948;10.62574;0.02492;10.62574
0.0950;10.63121;0.02486;10.63121
0.0955;10.63626;0.02477;10.63626
0.0957;10.64157;0.02467;10.64157
0.0959;10.64758;0.02454;10.64758
0.0960;10.65269;0.02437;10.65269
0.0964;10.65788;0.02446;10.65788
0.0965;10.66301;0.02429;10.66301
0.0967;10.66827;0.02429;10.66827
0.0968;10.67383;0.02415;10.67383
0.0969;10.67938;0.02411;10.67938
0.0971;10.68658;0.02393;10.68658
0.0972;10.69207;0.02380;10.69207
0.0974;10.69787;0.02369;10.69787
0.0976;10.70364;0.02374;10.70364
0.0978;10.70939;0.02348;10.70939
0.0981;10.71606;0.02345;10.71606
0.0983;10.72144;0.02326;10.72144
0.0985;10.72848;0.02337;10.72848
0.0987;10.73485;0.02323;10.73485
0.0989;10.74077;0.02327;10.74077
0.0991;10.74729;0.02316;10.74729
0.0994;10.75280;0.02310;10.75280
0.0996;10.75813;0.02290;10.75813
0.0998;10.76363;0.02289;10.76363
0.0999;10.77016;0.02275;10.77016
0.1000;10.77582;0.02258;10.77582
0.1003;10.78113;0.02278;10.78113
0.1005;10.78700;0.02245;10.78700
0.1007;10.79276;0.02238;10.79276
0.1009;10.79816;0.02228;10.79816
0.1012;10.80379;0.02218;10.80379
0.1016;10.80894;0.02213;10.80894
0.1019;10.81442;0.02219;10.81442
0.1020;10.82119;0.02213;10.82119
0.1023;10.82721;0.02227;10.82721
0.1026;10.83231;0.02216;10.83231
0.1030;10.83906;0.02241;10.83906
0.1031;10.84485;0.02239;10.84485
0.1034;10.85073;0.02241;10.85073
0.1036;10.85623;0.02257;10.85623
0.1038;10.86299;0.02254;10.86299
0.1039;10.86842;0.02253;10.86842
0.1041;10.87357;0.02280;10.87357
0.1043;10.87940;0.02271;10.87940
0.1045;10.88476;0.02269;10.88476
0.1047;10.89055;0.02259;10.89055
0.1049;10.89578;0.02261;10.89578
0.1054;10.90079;0.02281;10.90079
0.1058;10.90874;0.02307;10.90874
0.1060;10.91622;0.02303;10.91622
0.1063;10.92143;0.02298;10.92143
0.1065;10.92832;0.02314;10.92832
0.1067;10.93421;0.02323;10.93421
0.1071;10.94038;0.02355;10.94038
0.1074;10.94660;0.02360;10.94660
0.1077;10.95214;0.02363;10.95214
0.1079;10.95873;0.02372;10.95873
0.1081;10.96411;0.02379;10.96411
0.1084;10.96997;0.02390;10.96997
0.1086;10.97526;0.02378;10.97526
0.1087;10.98110;0.02392;10.98110
0.1090;10.98624;0.02394;10.98624
0.1091;10.99327;0.02389;10.99327
0.1093;10.99963;0.02416;10.99963
0.1096;11.00539;0.02424;11.00539
0.1098;11.01103;0.02432;11.01103
0.1101;11.01721;0.02467;11.01721
0.1104;11.02387;0.02463;11.02387
0.1106;11.02907;0.02475;11.02907
0.1111;11.03519;0.02505;11.03519
0.1114;11.04078;0.02512;11.04078
0.1117;11.04609;0.02528;11.04609
0.1119;11.05124;0.02534;11.05124
0.1122;11.05649;0.02552;11.05649
0.1124;11.06193;0.02561;11.06193
0.1127;11.06767;0.02557;11.06767
0.1130;11.07367;0.02543;11.07367
0.1133;11.07927;0.02546;11.07927
0.1135;11.08558;0.02554;11.08558
0.1137;11.09125;0.02557;11.09125
0.1141;11.09715;0.02580;11.09715
0.1142;11.10280;0.02575;11.10280
0.1144;11.10953;0.02584;11.10953
0.1145;11.11687;0.02598;11.11687
0.1147;11.12267;0.02594;11.12267
0.1150;11.12944;0.02587;11.12944
0.1152;11.13480;0.02590;11.13480
0.1155;11.14027;0.02592;11.14027
0.1157;11.14546;0.02588;11.14546
0.1159;11.15066;0.02599;11.15066
0.1164;11.15592;0.02614;11.15592
0.1171;11.16099;0.02628;11.16099
0.1174;11.16666;0.02607;11.16666
0.1178;11.17403;0.02618;11.17403
0.1179;11.17923;0.02613;11.17923
0.1181;11.18429;0.02589;11.18429
0.1183;11.19135;0.02577;11.19135
0.1186;11.19687;0.02579;11.19687
0.1187;11.20382;0.02582;11.20382
0.1189;11.20934;0.02561;11.20934
0.1193;11.21565;0.02554;11.21565
0.1194;11.22107;0.02545;11.22107
0.1198;11.22736;0.02500;11.22736
0.1202;11.23297;0.02477;11.23297
0.1204;11.23801;0.02442;11.23801
0.1208;11.24394;0.02422;11.24394
0.1210;11.25038;0.02395;11.25038
0.1213;11.25583;0.02386;11.25583
0.1214;11.26158;0.02379;11.26158
0.1217;11.26684;0.02379;11.26684
0.1220;11.27262;0.02377;11.27262
0.1222;11.27812;0.02362;11.27812
0.1223;11.28337;0.02353;11.28337
0.1226;11.28939;0.02334;11.28939
0.1230;11.29594;0.02324;11.29594
0.1236;11.30174;0.02313;11.30174
0.1241;11.30930;0.02279;11.30930
0.1243;11.31487;0.02276;11.31487
0.1246;11.32078;0.02253;11.32078
0.1250;11.32676;0.02260;11.32676
0.1253;11.33407;0.02256;11.33407
0.1255;11.34003;0.02240;11.34003
0.1257;11.34540;0.02207;11.34540
0.1259;11.35064;0.02230;11.35064
0.1261;11.35638;0.02214;11.35638
0.1264;11.36453;0.02201;11.36453
0.1270;11.36965;0.02223;11.36965
0.1271;11.37473;0.02219;11.37473
0.1274;11.38236;0.02218;11.38236
0.1276;11.38775;0.02241;11.38775
0.1278;11.39402;0.02224;11.39402
0.1279;11.39984;0.02243;11.39984
0.1283;11.40501;0.02276;11.40501
0.1286;11.41034;0.02286;11.41034
0.1291;11.41597;0.02293;11.41597
0.1293;11.42271;0.02294;11.42271
0.1295;11.42940;0.02300;11.42940
0.1297;11.43580;0.02327;11.43580
0.1298;11.44100;0.02329;11.44100
0.1299;11.44660;0.02308;11.44660
0.1300;11.45247;0.02314;11.45247
0.1301;11.45871;0.02331;11.45871
0.1302;11.46441;0.02330;11.46441
0.1304;11.46962;0.02333;11.46962
0.1307;11.47515;0.02351;11.47515
0.1312;11.48090;0.02361;11.48090
0.1316;11.48685;0.02371;11.48685
0.1321;11.49190;0.02404;11.49190
0.1324;11.49737;0.02419;11.49737
0.1332;11.50267;0.02413;11.50267
0.1335;11.50916;0.02403;11.50916
0.1336;11.51648;0.02393;11.51648
0.1338;11.52290;0.02395;11.52290
0.1339;11.52861;0.02397;11.52861
0.1341;11.53372;0.02387;11.53372
0.1343;11.53905;0.02357;11.53905
0.1346;11.54547;0.02366;11.54547
0.1349;11.55174;0.02335;11.55174
0.1353;11.55828;0.02347;11.55828
0.1354;11.56332;0.02347;11.56332
0.1355;11.56990;0.02331;11.56990
0.1357;11.57669;0.02323;11.57669
0.1361;11.58200;0.02298;11.58200
0.1365;11.58708;0.02287;11.58708
0.1368;11.59229;0.02286;11.59229
0.1372;11.59802;0.02246;11.59802
0.1375;11.60330;0.02240;11.60330
0.1377;11.61007;0.02217;11.61007
0.1380;11.61577;0.02207;11.61577
0.1384;11.62099;0.02181;11.62099
0.1387;11.62638;0.02178;11.62638
0.1389;11.63244;0.02172;11.63244
0.1391;11.63768;0.02157;11.63768
0.1393;11.64358;0.02142;11.64358
0.1395;11.64892;0.02114;11.64892
0.1402;11.65438;0.02112;11.65438
0.1404;11.66005;0.02091;11.66005
0.1409;11.66521;0.02091;11.66521
0.1411;11.66720;0.02082;11.66720
0.1413;11.67040;0.02092;11.67040
0.1419;11.67612;0.02098;11.67612
0.1422;11.68229;0.02096;11.68229
0.1423;11.68812;0.02102;11.68812
0.1425;11.69395;0.02097;11.69395
0.1427;11.69971;0.02108;11.69971
0.1428;11.70539;0.02105;11.70539
0.1432;11.71040;0.02128;11.71040
0.1434;11.71749;0.02136;11.71749
0.1436;11.72368;0.02127;11.72368
0.1438;11.72890;0.02143;11.72890
0.1440;11.73447;0.02144;11.73447
0.1443;11.74018;0.02161;11.74018
0.1445;11.74659;0.02183;11.74659
0.1450;11.75433;0.02203;11.75433
0.1455;11.76139;0.02232;11.76139
0.1460;11.76688;0.02244;11.76688
0.1464;11.77192;0.02234;11.77192
0.1467;11.77701;0.02269;11.77701
0.1469;11.78315;0.02260;11.78315
0.1471;11.79024;0.02261;11.79024
0.1475;11.79618;0.02294;11.79618
0.1478;11.80164;0.02290;11.80164
0.1481;11.80734;0.02303;11.80734
0.1484;11.81409;0.02306;11.81409
0.1489;11.81916;0.02321;11.81916
0.1493;11.82527;0.02329;11.82527
0.1496;11.83045;0.02355;11.83045
0.1499;11.83618;0.02347;11.83618
0.1503;11.84225;0.02366;11.84225
0.1505;11.84761;0.02365;11.84761
0.1508;11.85382;0.02391;11.85382
0.1511;11.85912;0.02395;11.85912
0.1515;11.86431;0.02409;11.86431
0.1523;11.86936;0.02429;11.86936
0.1525;11.87487;0.02437;11.87487
0.1529;11.88066;0.02455;11.88066
0.1533;11.88628;0.02468;11.88628
0.1535;11.89249;0.02447;11.89249
0.1536;11.90024;0.02451;11.90024
0.1538;11.90583;0.02451;11.90583
0.1540;11.91084;0.02464;11.91084
0.1544;11.91735;0.02481;11.91735
0.1546;11.92276;0.02478;11.92276
0.1549;11.92814;0.02479;11.92814
0.1551;11.93315;0.02485;11.93315
0.1558;11.93881;0.02467;11.93881
0.1564;11.94387;0.02451;11.94387
0.1568;11.94900;0.02461;11.94900
0.1571;11.95561;0.02444;11.95561
0.1576;11.96072;0.02413;11.96072
0.1580;11.96595;0.02405;11.96595
0.1583;11.97115;0.02401;11.97115
0.1585;11.97619;0.02386;11.97619
0.1587;11.98129;0.02374;11.98129
0.1593;11.98645;0.02369;11.98645
0.1596;11.99155;0.02336;11.99155
0.1600;11.99668;0.02330;11.99668
0.1602;12.00114;0.02321;12.00114
