Part protocol
Network name;Part_Maxymos_2_MP-001_2017-03-14_14-22-17_RMS_bl_trans150obr_tepy_000024_OK.csv
Protocol version;3.01.00






Result information
Date;2017/03/14
Time;14:22:17
Cycle number;24
Total result;OK
Triggered switch signals
Part serial number;RMS_bl_trans150obr_tepy_000024
Measuring program name;Bl_trans
Measuring program number;1
Zero X offset;0.000;mm
Tara Y offset;0.0000;RMS









Process values - curve related
Block X;12.000;mm;XMIN-X;7.655;mm
Block Y;0.0221;RMS;XMIN-Y;0.0888;RMS
Ref X;-;mm;XMAX-X;12.000;mm
Peak-peak X;4.345;mm;XMAX-Y;0.0221;RMS
Peak-peak Y;0.6593;RMS;YMIN-X;11.496;mm
;;;YMIN-Y;0.0214;RMS
;;;YMAX-X;8.508;mm
;;;YMAX-Y;0.6807;RMS

Process values - EO related;Result;Entry;Exit;XMIN-X;XMIN-Y;XMAX-X;XMAX-Y;YMIN-Y;YMIN-X;YMAX-Y;YMAX-X;Calculated result;NOK cause;Violation X;Violation Y;Ref X;Ref Y;Switch force;Y-Diff;X-Diff;Force deviation ratio;Click ratio;Contact edge
;;;;mm;RMS;mm;RMS;RMS;mm;RMS;mm;-;-;-;-;-;-;-;-;-;-;-;-;
EO-01;OK;8.226;;;;;;;;;;;;;;;;
EO-02;OK;;;;;;;;;;;0.2816;;;;;;
EO-03;OK;;;;;;;;;;;0.6593;;;;;;
EO-04;None;
EO-05;None;
EO-06;None;
EO-07;None;
EO-08;None;
EO-09;None;
EO-10;None;


















Evaluation objects settings;Reaction;X reference;Y-Reference;XMin;XMax;YMin;YMax;Entry;Exit;Curve part;Catch zone X;Catch zone Y;EO Name;EO description;Re-entry ignored;Generate statistics;X-Hysteresis;Y-Hysteresis;Down sampling rate;Calc limit min;Calc limit max;Grad limit min;Grad limit max;Hyst limit min;Hyst limit max;Speed limit min;Speed limit max;Time limit min;Time limit max;Is curve inside box;GetRef type;CalcInput1 | dx;CalcInput2 | dx;Calc operation;Average limit min;Average limit max;Break max bending;Visualization offset X;Visualization offset Y;-;-;-
EO-01;LINE-X;ABSOLUTE;ABSOLUTE;8.037;8.473;0.1000;;BELOW;NONE;ANY;+50%;+0%;;;FALSE;TRUE;0.0;0.0;1;;;;;;;;;;;;;;;;;;;0.000;0.0000;;;
EO-02;CALC;ABSOLUTE;ABSOLUTE;-0.409;;1.5166;;NONE;NONE;ANY;+0%;+0%;;;FALSE;TRUE;0.0;0.0;1;0.000000;0.500000;;;;;;;;;;;PV_TABLE_CURVE | YMAX-X;EO-01 | ENTRY;Subtraction;;;;0.000;0.0000;;;
EO-03;CALC;ABSOLUTE;ABSOLUTE;10.518;;1.3638;;NONE;NONE;ANY;+0%;+0%;;;FALSE;TRUE;0.0;0.0;1;0.000000;1.000000;;;;;;;;;;;PV_TABLE_CURVE | YMAX-Y;PV_TABLE_CURVE | YMIN-Y;Subtraction;;;;0.000;0.0000;;;
EO-04;OFF
EO-05;OFF
EO-06;OFF
EO-07;OFF
EO-08;OFF
EO-09;OFF
EO-10;OFF



















Switch signal settings;Channel;Threshold at;;Trigger from;Reference;Latch until
Type S1;X;10.370;mm;LEFT;ABSOLUTE;None
Type S2;OFF

















Device information
Device type;maXYmos TL
Device type number;5877A0
Device serial number;4915792
Firmware version;1.1.12 (r21150-TL_v1.1.x)
-
-
-
-
-
IP Address;192.168.21.20
Network name;Maxymos 2
Profibus address;10
-
-
-
Station name;Maxymos 2
Company name;
Comment;











Channel-X settings
Use the settings from global setup;True
Sensor-X type;Potentiometer
Unit;mm
Used range from;8.000;mm
Used range to;12.000;mm
Decimal places;XXX.XXX
Scaling by;Teach-In
Point 1;-0.380;mm;16.488;%
Point 2;72.105;mm;72.105;%
Invert signal;FALSE
Filter;OFF
Test point;0.000;mm
Tolerance;0.010;mm
Enable sensor test by dig-input;FALSE
Zoom from;0.000;mm
Zoom to;100.000;mm
Master Measurement Enable;FALSE
Master Measurement Nominal Position;0.000;mm
Encoder interpolation factor;-
Encoder electrical interface;-
Encoder referencing type;-
Encoder referencing edge;-
Encoder pulses per minute;-
Encoder use every nth-mark;-
Reference;-
Encoder reference points;-
Encoder coding;-
Encoder width;-
Encoder optimization;-
Encoder clock frequency;-
Termination resistor;-








Channel-Y settings
Use the settings from global setup;True
Sensor-Y type;Â±10V
Unit;RMS
Used range from;0.0000;RMS
Used range to;10.0000;RMS
Decimal places;XX.XXXX
Scaling by;Calibration Sheet
Sensitivity;1000.0000;RMS;-4.000;mV/V
Zero point;0.0000;RMS;0.000;mV/V
Invert signal;FALSE
Filter;OFF
Piezo reset;-
Test point;0.0000;RMS
Tolerance;0.0000;RMS
Enable sensor test by dig-input;FALSE
Zoom from;0.0000;RMS
Zoom to;1000.0000;RMS












Cycle control settings
Use the settings from global setup;True
Measuring function;Y (X)
Delta-X;User-Defined;0.00500;mm
START condition;Threshold-X;7.500;mm;Trigger from;LEFT
STOP condition;Threshold-X;12.000;mm;Trigger from;LEFT
Cycle time out;2.00;s
Turning point RIGHT;YMAX
Turning point LEFT;NONE
Cut curve at;NONE










Evaluation settings
Capture only first NOK-EO for statistics;False
Hysteresis X;0.0;%
Hysteresis Y;0.0;%






Trigger Y settings
Threshold at;1.2839;RMS
Value X at TRIGGER Y;0.000;mm
Approach from;BELOW






Block settings
Value X at block;XMAX
Block at;0.000;mm







Measuring curve
Number of measuring points;738
Ref. Graph on;ABSOLUTE
Curve segments;0;140;139;738;


Time;X(ABSOLUTE);Y;X (ABSOLUTE)


s;mm;RMS;mm
0.0000;7.65493;0.08885;7.65493
0.0003;7.66375;0.08635;7.66375
0.0005;7.66997;0.08493;7.66997
0.0007;7.67674;0.08393;7.67674
0.0011;7.68302;0.08081;7.68302
0.0012;7.68859;0.07992;7.68859
0.0013;7.69731;0.07923;7.69731
0.0015;7.70531;0.07833;7.70531
0.0017;7.71168;0.07713;7.71168
0.0019;7.71890;0.07596;7.71890
0.0020;7.72493;0.07538;7.72493
0.0022;7.73174;0.07463;7.73174
0.0025;7.73730;0.07298;7.73730
0.0027;7.74355;0.07247;7.74355
0.0029;7.75093;0.07181;7.75093
0.0030;7.75664;0.07156;7.75664
0.0032;7.76250;0.07109;7.76250
0.0037;7.76919;0.06990;7.76919
0.0040;7.77477;0.06884;7.77477
0.0041;7.77981;0.06824;7.77981
0.0045;7.78546;0.06709;7.78546
0.0048;7.79199;0.06645;7.79199
0.0051;7.79708;0.06593;7.79708
0.0054;7.80250;0.06535;7.80250
0.0057;7.80853;0.06486;7.80853
0.0063;7.81423;0.06343;7.81423
0.0072;7.81997;0.06051;7.81997
0.0076;7.82579;0.05904;7.82579
0.0080;7.83081;0.05743;7.83081
0.0084;7.83600;0.05560;7.83600
0.0093;7.84300;0.05260;7.84300
0.0096;7.84898;0.05146;7.84898
0.0100;7.85513;0.04958;7.85513
0.0102;7.86031;0.04879;7.86031
0.0106;7.86635;0.04770;7.86635
0.0107;7.87220;0.04702;7.87220
0.0109;7.87749;0.04648;7.87749
0.0112;7.88337;0.04527;7.88337
0.0115;7.88979;0.04446;7.88979
0.0119;7.89545;0.04295;7.89545
0.0126;7.90123;0.04110;7.90123
0.0128;7.90692;0.04070;7.90692
0.0132;7.91386;0.03949;7.91386
0.0133;7.91919;0.03922;7.91919
0.0134;7.92541;0.03915;7.92541
0.0136;7.93189;0.03872;7.93189
0.0138;7.93697;0.03842;7.93697
0.0140;7.94215;0.03820;7.94215
0.0143;7.94731;0.03768;7.94731
0.0145;7.95234;0.03715;7.95234
0.0147;7.95823;0.03699;7.95823
0.0148;7.96391;0.03693;7.96391
0.0151;7.96902;0.03641;7.96902
0.0153;7.97516;0.03620;7.97516
0.0156;7.98033;0.03594;7.98033
0.0156;7.98562;0.03585;7.98562
0.0159;7.99198;0.03547;7.99198
0.0163;7.99715;0.03508;7.99715
0.0165;8.00317;0.03466;8.00317
0.0167;8.00872;0.03464;8.00872
0.0169;8.01531;0.03438;8.01531
0.0170;8.02058;0.03424;8.02058
0.0172;8.02714;0.03411;8.02714
0.0174;8.03220;0.03394;8.03220
0.0175;8.03839;0.03377;8.03839
0.0177;8.04372;0.03371;8.04372
0.0179;8.05118;0.03351;8.05118
0.0180;8.06021;0.03360;8.06021
0.0182;8.06625;0.03330;8.06625
0.0184;8.07253;0.03337;8.07253
0.0185;8.07869;0.03318;8.07869
0.0187;8.08425;0.03318;8.08425
0.0188;8.09044;0.03317;8.09044
0.0190;8.09638;0.03307;8.09638
0.0193;8.10327;0.03280;8.10327
0.0195;8.10896;0.03262;8.10896
0.0197;8.11493;0.03254;8.11493
0.0199;8.12002;0.03243;8.12002
0.0202;8.12532;0.03253;8.12532
0.0204;8.13193;0.03253;8.13193
0.0205;8.13782;0.03245;8.13782
0.0206;8.14326;0.03240;8.14326
0.0208;8.15172;0.03236;8.15172
0.0209;8.15995;0.03219;8.15995
0.0210;8.16558;0.03225;8.16558
0.0211;8.17099;0.03241;8.17099
0.0213;8.17812;0.03220;8.17812
0.0214;8.18474;0.03204;8.18474
0.0215;8.19114;0.03220;8.19114
0.0216;8.19644;0.03217;8.19644
0.0217;8.20152;0.03226;8.20152
0.0220;8.20755;0.03240;8.20755
0.0221;8.21256;0.03472;8.21256
0.0224;8.21851;0.06142;8.21851
0.0225;8.22291;0.08413;8.22291
0.0227;8.22845;0.11080;8.22845
0.0228;8.23426;0.12861;8.23426
0.0228;8.24020;0.14607;8.24020
0.0230;8.24728;0.17161;8.24728
0.0231;8.25228;0.18770;8.25228
0.0232;8.26203;0.20306;8.26203
0.0233;8.26972;0.21830;8.26972
0.0234;8.27641;0.23391;8.27641
0.0235;8.28272;0.26083;8.28272
0.0236;8.28620;0.28180;8.28620
0.0237;8.29258;0.30510;8.29258
0.0238;8.29823;0.32948;8.29823
0.0239;8.30555;0.35416;8.30555
0.0240;8.31224;0.37879;8.31224
0.0241;8.31988;0.40269;8.31988
0.0242;8.32690;0.42568;8.32690
0.0243;8.33546;0.44718;8.33546
0.0244;8.34118;0.46764;8.34118
0.0245;8.34354;0.49651;8.34354
0.0246;8.34893;0.51446;8.34893
0.0247;8.35461;0.52283;8.35461
0.0247;8.36033;0.53096;8.36033
0.0248;8.36856;0.54644;8.36856
0.0249;8.37580;0.56105;8.37580
0.0250;8.38130;0.56764;8.38130
0.0251;8.39017;0.58058;8.39017
0.0251;8.39588;0.58656;8.39588
0.0252;8.40235;0.59234;8.40235
0.0252;8.40921;0.60336;8.40921
0.0255;8.41272;0.62680;8.41272
0.0257;8.41783;0.64217;8.41783
0.0258;8.42390;0.65146;8.42390
0.0259;8.42968;0.65439;8.42968
0.0259;8.43471;0.65701;8.43471
0.0260;8.44217;0.66182;8.44217
0.0261;8.45027;0.66599;8.45027
0.0262;8.45870;0.66952;8.45870
0.0263;8.46489;0.67265;8.46489
0.0264;8.47148;0.67621;8.47148
0.0265;8.47888;0.67797;8.47888
0.0266;8.48505;0.67920;8.48505
0.0267;8.49148;0.68024;8.49148
0.0268;8.49855;0.68064;8.49855
0.0269;8.50372;0.68064;8.50372
0.0269;8.50786;0.68072;8.50786
0.0270;8.51136;0.68042;8.51136
0.0271;8.51638;0.67991;8.51638
0.0272;8.52327;0.67930;8.52327
0.0274;8.53158;0.67654;8.53158
0.0275;8.53688;0.67379;8.53688
0.0276;8.54270;0.67156;8.54270
0.0277;8.55015;0.66790;8.55015
0.0279;8.55612;0.66383;8.55612
0.0280;8.56211;0.66056;8.56211
0.0281;8.56895;0.65580;8.56895
0.0282;8.57555;0.65222;8.57555
0.0283;8.58271;0.64849;8.58271
0.0284;8.59060;0.64459;8.59060
0.0287;8.59706;0.63455;8.59706
0.0288;8.60242;0.62792;8.60242
0.0290;8.60813;0.61670;8.60813
0.0293;8.61319;0.60484;8.61319
0.0294;8.61876;0.60008;8.61876
0.0295;8.62537;0.59286;8.62537
0.0299;8.63056;0.57243;8.63056
0.0302;8.63682;0.55690;8.63682
0.0304;8.64220;0.54655;8.64220
0.0308;8.64742;0.52563;8.64742
0.0309;8.65349;0.52020;8.65349
0.0311;8.65935;0.50961;8.65935
0.0314;8.65968;0.48887;8.65968
0.0318;8.65877;0.46816;8.65877
0.0321;8.66488;0.45579;8.66488
0.0325;8.66597;0.43348;8.66597
0.0329;8.66639;0.41188;8.66639
0.0334;8.66889;0.39095;8.66889
0.0338;8.67415;0.36895;8.67415
0.0343;8.67619;0.34787;8.67619
0.0348;8.67991;0.32781;8.67991
0.0352;8.68529;0.31080;8.68529
0.0355;8.69108;0.30157;8.69108
0.0357;8.69816;0.29444;8.69816
0.0358;8.70367;0.29100;8.70367
0.0359;8.71046;0.28760;8.71046
0.0360;8.71682;0.28237;8.71682
0.0361;8.72396;0.27737;8.72396
0.0362;8.73141;0.27412;8.73141
0.0363;8.73807;0.27078;8.73807
0.0365;8.74390;0.26607;8.74390
0.0366;8.75007;0.26119;8.75007
0.0367;8.75604;0.25813;8.75604
0.0369;8.76281;0.25357;8.76281
0.0371;8.76934;0.24612;8.76934
0.0373;8.77505;0.24041;8.77505
0.0374;8.78038;0.23629;8.78038
0.0376;8.78602;0.23082;8.78602
0.0377;8.79131;0.22811;8.79131
0.0379;8.79742;0.22434;8.79742
0.0380;8.80830;0.22171;8.80830
0.0382;8.81648;0.21670;8.81648
0.0383;8.82322;0.21419;8.82322
0.0384;8.83432;0.20939;8.83432
0.0386;8.83993;0.20592;8.83993
0.0387;8.84536;0.20240;8.84536
0.0389;8.85039;0.19797;8.85039
0.0391;8.85576;0.19493;8.85576
0.0393;8.86206;0.18955;8.86206
0.0394;8.86871;0.18763;8.86871
0.0395;8.87517;0.18564;8.87517
0.0396;8.88173;0.18351;8.88173
0.0397;8.88758;0.18153;8.88758
0.0398;8.89289;0.17982;8.89289
0.0399;8.89871;0.17784;8.89871
0.0400;8.90572;0.17495;8.90572
0.0402;8.91229;0.17218;8.91229
0.0403;8.91907;0.16955;8.91907
0.0405;8.92449;0.16678;8.92449
0.0408;8.93052;0.16159;8.93052
0.0409;8.93654;0.15830;8.93654
0.0410;8.94202;0.15661;8.94202
0.0412;8.95027;0.15423;8.95027
0.0413;8.95864;0.15273;8.95864
0.0414;8.96500;0.15124;8.96500
0.0415;8.97031;0.14960;8.97031
0.0416;8.97603;0.14820;8.97603
0.0417;8.98263;0.14594;8.98263
0.0420;8.98798;0.14070;8.98798
0.0421;8.99338;0.13940;8.99338
0.0423;8.99892;0.13665;8.99892
0.0425;9.00443;0.13386;9.00443
0.0428;9.01124;0.13048;9.01124
0.0430;9.01874;0.12781;9.01874
0.0431;9.02379;0.12590;9.02379
0.0432;9.02892;0.12408;9.02892
0.0434;9.03579;0.12148;9.03579
0.0436;9.04160;0.11981;9.04160
0.0437;9.04693;0.11854;9.04693
0.0439;9.05427;0.11613;9.05427
0.0440;9.06026;0.11449;9.06026
0.0442;9.06588;0.11224;9.06588
0.0443;9.07183;0.11093;9.07183
0.0446;9.07692;0.10766;9.07692
0.0448;9.08258;0.10567;9.08258
0.0450;9.08817;0.10332;9.08817
0.0454;9.09374;0.09944;9.09374
0.0456;9.10026;0.09690;9.10026
0.0458;9.10663;0.09455;9.10663
0.0460;9.11201;0.09275;9.11201
0.0463;9.11833;0.09031;9.11833
0.0464;9.12357;0.08911;9.12357
0.0465;9.12937;0.08805;9.12937
0.0467;9.13465;0.08682;9.13465
0.0469;9.14166;0.08466;9.14166
0.0471;9.14722;0.08260;9.14722
0.0473;9.15415;0.08140;9.15415
0.0475;9.16021;0.07973;9.16021
0.0476;9.16672;0.07901;9.16672
0.0478;9.17331;0.07764;9.17331
0.0479;9.17985;0.07650;9.17985
0.0480;9.18544;0.07581;9.18544
0.0482;9.19112;0.07435;9.19112
0.0485;9.19684;0.07189;9.19684
0.0487;9.20195;0.07092;9.20195
0.0489;9.20874;0.06948;9.20874
0.0491;9.21451;0.06816;9.21451
0.0493;9.22171;0.06668;9.22171
0.0495;9.22951;0.06537;9.22951
0.0496;9.23614;0.06476;9.23614
0.0497;9.24136;0.06428;9.24136
0.0498;9.24780;0.06359;9.24780
0.0500;9.25305;0.06219;9.25305
0.0503;9.25880;0.06056;9.25880
0.0504;9.26429;0.05980;9.26429
0.0506;9.27125;0.05892;9.27125
0.0507;9.27629;0.05830;9.27629
0.0509;9.28130;0.05740;9.28130
0.0511;9.28701;0.05649;9.28701
0.0513;9.29323;0.05547;9.29323
0.0514;9.30016;0.05483;9.30016
0.0517;9.30686;0.05366;9.30686
0.0520;9.31386;0.05258;9.31386
0.0522;9.31902;0.05171;9.31902
0.0525;9.32560;0.05060;9.32560
0.0527;9.33268;0.04982;9.33268
0.0528;9.33777;0.04931;9.33777
0.0532;9.34436;0.04822;9.34436
0.0533;9.34979;0.04799;9.34979
0.0536;9.35692;0.04691;9.35692
0.0538;9.36206;0.04639;9.36206
0.0540;9.36724;0.04592;9.36724
0.0541;9.37275;0.04547;9.37275
0.0545;9.38054;0.04438;9.38054
0.0547;9.38625;0.04387;9.38625
0.0549;9.39126;0.04368;9.39126
0.0550;9.39664;0.04335;9.39664
0.0551;9.40308;0.04307;9.40308
0.0552;9.40811;0.04274;9.40811
0.0554;9.41360;0.04245;9.41360
0.0556;9.42148;0.04220;9.42148
0.0558;9.42656;0.04178;9.42656
0.0561;9.43237;0.04116;9.43237
0.0564;9.43762;0.04064;9.43762
0.0565;9.44278;0.04052;9.44278
0.0567;9.44779;0.04020;9.44779
0.0569;9.45512;0.03987;9.45512
0.0571;9.46190;0.03952;9.46190
0.0572;9.46769;0.03933;9.46769
0.0574;9.47324;0.03909;9.47324
0.0576;9.47876;0.03892;9.47876
0.0577;9.48572;0.03861;9.48572
0.0579;9.49080;0.03836;9.49080
0.0583;9.49777;0.03794;9.49777
0.0585;9.50281;0.03759;9.50281
0.0588;9.50815;0.03703;9.50815
0.0590;9.51434;0.03680;9.51434
0.0591;9.52052;0.03668;9.52052
0.0595;9.52716;0.03641;9.52716
0.0597;9.53280;0.03615;9.53280
0.0599;9.53924;0.03584;9.53924
0.0602;9.54535;0.03574;9.54535
0.0604;9.55075;0.03559;9.55075
0.0606;9.55686;0.03556;9.55686
0.0608;9.56377;0.03529;9.56377
0.0610;9.57143;0.03514;9.57143
0.0611;9.57797;0.03515;9.57797
0.0612;9.58320;0.03517;9.58320
0.0613;9.58912;0.03506;9.58912
0.0614;9.59500;0.03515;9.59500
0.0617;9.60079;0.03488;9.60079
0.0619;9.60773;0.03462;9.60773
0.0622;9.61337;0.03461;9.61337
0.0624;9.61850;0.03456;9.61850
0.0625;9.62474;0.03448;9.62474
0.0629;9.63043;0.03390;9.63043
0.0631;9.63625;0.03404;9.63625
0.0633;9.64211;0.03387;9.64211
0.0635;9.64776;0.03393;9.64776
0.0636;9.65508;0.03378;9.65508
0.0638;9.66274;0.03366;9.66274
0.0639;9.66821;0.03326;9.66821
0.0641;9.67451;0.03332;9.67451
0.0643;9.68108;0.03331;9.68108
0.0645;9.68703;0.03310;9.68703
0.0647;9.69314;0.03295;9.69314
0.0649;9.70000;0.03259;9.70000
0.0650;9.70613;0.03248;9.70613
0.0652;9.71260;0.03233;9.71260
0.0653;9.71835;0.03240;9.71835
0.0654;9.72550;0.03225;9.72550
0.0656;9.73296;0.03202;9.73296
0.0657;9.73931;0.03211;9.73931
0.0658;9.74597;0.03184;9.74597
0.0659;9.75100;0.03176;9.75100
0.0660;9.75772;0.03153;9.75772
0.0662;9.76272;0.03133;9.76272
0.0664;9.76918;0.03144;9.76918
0.0665;9.77466;0.03121;9.77466
0.0667;9.77990;0.03098;9.77990
0.0669;9.78619;0.03090;9.78619
0.0671;9.79133;0.03075;9.79133
0.0674;9.79951;0.03053;9.79951
0.0676;9.80491;0.03037;9.80491
0.0678;9.81067;0.03033;9.81067
0.0680;9.81805;0.03013;9.81805
0.0681;9.82503;0.03012;9.82503
0.0682;9.83007;0.03000;9.83007
0.0684;9.83550;0.02983;9.83550
0.0688;9.84244;0.02978;9.84244
0.0691;9.84854;0.02971;9.84854
0.0693;9.85367;0.02981;9.85367
0.0695;9.85873;0.02962;9.85873
0.0696;9.86513;0.02963;9.86513
0.0699;9.87163;0.02959;9.87163
0.0702;9.87766;0.02950;9.87766
0.0703;9.88350;0.02952;9.88350
0.0704;9.88904;0.02941;9.88904
0.0706;9.89520;0.02932;9.89520
0.0707;9.88909;0.02918;9.88909
0.0707;9.89427;0.02921;9.89427
0.0708;9.90255;0.02900;9.90255
0.0710;9.90872;0.02912;9.90872
0.0712;9.91489;0.02887;9.91489
0.0717;9.92091;0.02876;9.92091
0.0720;9.92764;0.02848;9.92764
0.0722;9.93355;0.02847;9.93355
0.0723;9.93957;0.02810;9.93957
0.0725;9.94593;0.02808;9.94593
0.0726;9.95215;0.02792;9.95215
0.0728;9.95885;0.02775;9.95885
0.0730;9.96504;0.02758;9.96504
0.0732;9.97021;0.02776;9.97021
0.0734;9.97617;0.02767;9.97617
0.0736;9.98343;0.02763;9.98343
0.0737;9.98866;0.02763;9.98866
0.0739;9.99559;0.02747;9.99559
0.0743;10.00121;0.02734;10.00121
0.0745;10.00656;0.02718;10.00656
0.0747;10.01211;0.02723;10.01211
0.0750;10.01801;0.02702;10.01801
0.0751;10.02473;0.02687;10.02473
0.0753;10.02999;0.02676;10.02999
0.0754;10.03529;0.02669;10.03529
0.0756;10.04126;0.02656;10.04126
0.0758;10.04778;0.02638;10.04778
0.0759;10.05498;0.02632;10.05498
0.0760;10.06009;0.02642;10.06009
0.0762;10.06518;0.02634;10.06518
0.0763;10.07093;0.02630;10.07093
0.0764;10.07805;0.02621;10.07805
0.0766;10.08314;0.02629;10.08314
0.0768;10.09080;0.02623;10.09080
0.0769;10.09851;0.02629;10.09851
0.0771;10.10373;0.02623;10.10373
0.0773;10.11231;0.02618;10.11231
0.0776;10.11796;0.02606;10.11796
0.0779;10.12414;0.02610;10.12414
0.0781;10.12928;0.02604;10.12928
0.0786;10.13486;0.02590;10.13486
0.0788;10.14082;0.02591;10.14082
0.0789;10.14678;0.02606;10.14678
0.0790;10.15451;0.02598;10.15451
0.0791;10.15976;0.02598;10.15976
0.0792;10.16532;0.02611;10.16532
0.0794;10.17131;0.02604;10.17131
0.0797;10.17706;0.02600;10.17706
0.0803;10.18345;0.02623;10.18345
0.0804;10.18863;0.02628;10.18863
0.0806;10.19525;0.02636;10.19525
0.0808;10.20034;0.02642;10.20034
0.0810;10.20559;0.02652;10.20559
0.0813;10.21142;0.02663;10.21142
0.0816;10.21952;0.02670;10.21952
0.0817;10.22481;0.02681;10.22481
0.0819;10.23014;0.02690;10.23014
0.0821;10.23591;0.02707;10.23591
0.0823;10.24212;0.02708;10.24212
0.0826;10.24795;0.02715;10.24795
0.0827;10.25391;0.02711;10.25391
0.0828;10.26074;0.02724;10.26074
0.0829;10.26629;0.02711;10.26629
0.0831;10.27367;0.02730;10.27367
0.0833;10.27932;0.02731;10.27932
0.0836;10.28502;0.02731;10.28502
0.0838;10.29170;0.02738;10.29170
0.0840;10.29688;0.02757;10.29688
0.0843;10.30342;0.02760;10.30342
0.0847;10.30963;0.02754;10.30963
0.0849;10.31669;0.02737;10.31669
0.0850;10.32257;0.02751;10.32257
0.0852;10.32788;0.02739;10.32788
0.0854;10.33332;0.02736;10.33332
0.0857;10.34002;0.02729;10.34002
0.0859;10.34624;0.02717;10.34624
0.0860;10.35386;0.02711;10.35386
0.0861;10.35908;0.02704;10.35908
0.0864;10.36528;0.02693;10.36528
0.0867;10.37239;0.02676;10.37239
0.0869;10.37830;0.02672;10.37830
0.0871;10.38451;0.02655;10.38451
0.0873;10.39077;0.02647;10.39077
0.0875;10.39712;0.02645;10.39712
0.0877;10.40279;0.02634;10.40279
0.0879;10.40919;0.02621;10.40919
0.0880;10.41455;0.02623;10.41455
0.0882;10.42114;0.02602;10.42114
0.0884;10.42719;0.02583;10.42719
0.0886;10.43262;0.02574;10.43262
0.0887;10.43766;0.02577;10.43766
0.0888;10.44437;0.02562;10.44437
0.0890;10.44953;0.02553;10.44953
0.0891;10.45666;0.02567;10.45666
0.0892;10.46329;0.02538;10.46329
0.0894;10.46911;0.02530;10.46911
0.0895;10.47429;0.02531;10.47429
0.0898;10.47933;0.02515;10.47933
0.0899;10.48463;0.02501;10.48463
0.0902;10.48969;0.02500;10.48969
0.0905;10.49513;0.02483;10.49513
0.0906;10.50207;0.02467;10.50207
0.0910;10.50880;0.02456;10.50880
0.0912;10.51386;0.02445;10.51386
0.0914;10.51950;0.02451;10.51950
0.0917;10.52467;0.02438;10.52467
0.0919;10.53149;0.02412;10.53149
0.0921;10.53747;0.02419;10.53747
0.0923;10.54250;0.02405;10.54250
0.0925;10.54887;0.02400;10.54887
0.0928;10.55432;0.02405;10.55432
0.0932;10.56033;0.02412;10.56033
0.0933;10.56642;0.02408;10.56642
0.0934;10.57216;0.02404;10.57216
0.0936;10.57997;0.02422;10.57997
0.0938;10.58654;0.02418;10.58654
0.0939;10.59371;0.02423;10.59371
0.0940;10.59900;0.02431;10.59900
0.0942;10.60484;0.02414;10.60484
0.0946;10.61041;0.02437;10.61041
0.0947;10.61681;0.02445;10.61681
0.0948;10.62199;0.02448;10.62199
0.0950;10.62709;0.02442;10.62709
0.0954;10.63294;0.02453;10.63294
0.0957;10.63839;0.02467;10.63839
0.0959;10.64478;0.02466;10.64478
0.0960;10.65071;0.02471;10.65071
0.0963;10.65582;0.02485;10.65582
0.0965;10.66158;0.02477;10.66158
0.0968;10.66689;0.02486;10.66689
0.0969;10.67327;0.02496;10.67327
0.0970;10.68002;0.02509;10.68002
0.0971;10.68663;0.02487;10.68663
0.0973;10.69319;0.02508;10.69319
0.0975;10.69838;0.02522;10.69838
0.0978;10.70489;0.02527;10.70489
0.0980;10.71122;0.02532;10.71122
0.0982;10.71764;0.02546;10.71764
0.0984;10.72521;0.02542;10.72521
0.0986;10.73087;0.02568;10.73087
0.0988;10.73623;0.02555;10.73623
0.0990;10.74256;0.02562;10.74256
0.0992;10.74898;0.02577;10.74898
0.0995;10.75582;0.02576;10.75582
0.0997;10.76230;0.02580;10.76230
0.0999;10.76790;0.02557;10.76790
0.1001;10.77457;0.02560;10.77457
0.1003;10.77996;0.02558;10.77996
0.1005;10.78551;0.02557;10.78551
0.1007;10.79091;0.02577;10.79091
0.1008;10.79601;0.02561;10.79601
0.1010;10.80108;0.02574;10.80108
0.1014;10.80639;0.02579;10.80639
0.1017;10.81156;0.02586;10.81156
0.1019;10.81778;0.02609;10.81778
0.1020;10.82285;0.02603;10.82285
0.1024;10.82807;0.02617;10.82807
0.1027;10.83483;0.02633;10.83483
0.1029;10.83990;0.02625;10.83990
0.1030;10.84610;0.02633;10.84610
0.1032;10.85141;0.02637;10.85141
0.1034;10.85657;0.02630;10.85657
0.1036;10.86229;0.02630;10.86229
0.1037;10.86733;0.02629;10.86733
0.1039;10.87248;0.02648;10.87248
0.1041;10.87897;0.02647;10.87897
0.1043;10.88517;0.02669;10.88517
0.1045;10.89089;0.02661;10.89089
0.1048;10.89602;0.02673;10.89602
0.1051;10.90134;0.02667;10.90134
0.1055;10.90759;0.02657;10.90759
0.1056;10.91375;0.02667;10.91375
0.1058;10.91959;0.02665;10.91959
0.1060;10.92512;0.02680;10.92512
0.1062;10.93056;0.02687;10.93056
0.1066;10.93659;0.02688;10.93659
0.1068;10.94365;0.02711;10.94365
0.1070;10.94885;0.02692;10.94885
0.1073;10.95561;0.02691;10.95561
0.1075;10.96101;0.02713;10.96101
0.1079;10.96659;0.02698;10.96659
0.1080;10.97192;0.02702;10.97192
0.1082;10.97864;0.02702;10.97864
0.1085;10.98443;0.02680;10.98443
0.1087;10.99119;0.02681;10.99119
0.1088;10.99647;0.02681;10.99647
0.1090;11.00176;0.02678;11.00176
0.1092;11.00844;0.02676;11.00844
0.1094;11.01347;0.02672;11.01347
0.1095;11.01865;0.02686;11.01865
0.1100;11.02449;0.02679;11.02449
0.1103;11.02999;0.02651;11.02999
0.1106;11.03501;0.02653;11.03501
0.1107;11.02876;0.02656;11.02876
0.1108;11.03639;0.02632;11.03639
0.1110;11.04185;0.02625;11.04185
0.1112;11.04747;0.02614;11.04747
0.1114;11.05292;0.02614;11.05292
0.1116;11.05804;0.02590;11.05804
0.1119;11.06325;0.02560;11.06325
0.1123;11.06967;0.02546;11.06967
0.1127;11.07520;0.02565;11.07520
0.1129;11.08029;0.02548;11.08029
0.1131;11.08586;0.02527;11.08586
0.1132;11.09087;0.02527;11.09087
0.1135;11.09602;0.02508;11.09602
0.1137;11.10197;0.02491;11.10197
0.1139;11.10869;0.02472;11.10869
0.1140;11.11632;0.02491;11.11632
0.1143;11.12457;0.02469;11.12457
0.1145;11.13085;0.02468;11.13085
0.1148;11.13621;0.02442;11.13621
0.1151;11.14193;0.02430;11.14193
0.1153;11.14771;0.02430;11.14771
0.1158;11.15292;0.02404;11.15292
0.1163;11.15889;0.02411;11.15889
0.1169;11.16545;0.02398;11.16545
0.1175;11.17116;0.02380;11.17116
0.1178;11.17797;0.02364;11.17797
0.1180;11.18432;0.02371;11.18432
0.1183;11.18954;0.02374;11.18954
0.1185;11.19706;0.02356;11.19706
0.1188;11.20441;0.02376;11.20441
0.1190;11.20967;0.02380;11.20967
0.1196;11.21489;0.02368;11.21489
0.1198;11.22004;0.02393;11.22004
0.1202;11.22509;0.02395;11.22509
0.1205;11.23068;0.02393;11.23068
0.1209;11.23587;0.02413;11.23587
0.1212;11.24097;0.02424;11.24097
0.1215;11.24632;0.02432;11.24632
0.1217;11.25206;0.02415;11.25206
0.1219;11.25771;0.02417;11.25771
0.1221;11.26331;0.02433;11.26331
0.1224;11.26977;0.02444;11.26977
0.1226;11.27486;0.02448;11.27486
0.1228;11.28070;0.02446;11.28070
0.1231;11.28606;0.02457;11.28606
0.1235;11.29182;0.02467;11.29182
0.1239;11.29681;0.02475;11.29681
0.1241;11.30369;0.02472;11.30369
0.1244;11.30901;0.02486;11.30901
0.1249;11.31423;0.02465;11.31423
0.1251;11.32029;0.02454;11.32029
0.1254;11.32655;0.02447;11.32655
0.1256;11.33162;0.02441;11.33162
0.1258;11.33751;0.02415;11.33751
0.1260;11.34488;0.02405;11.34488
0.1262;11.35035;0.02401;11.35035
0.1265;11.35615;0.02388;11.35615
0.1269;11.36148;0.02373;11.36148
0.1273;11.36801;0.02356;11.36801
0.1275;11.37391;0.02332;11.37391
0.1279;11.37950;0.02316;11.37950
0.1281;11.38544;0.02285;11.38544
0.1282;11.39044;0.02296;11.39044
0.1284;11.39690;0.02280;11.39690
0.1286;11.40216;0.02260;11.40216
0.1291;11.40733;0.02246;11.40733
0.1296;11.41349;0.02217;11.41349
0.1299;11.41953;0.02218;11.41953
0.1302;11.42731;0.02195;11.42731
0.1303;11.43272;0.02200;11.43272
0.1304;11.43935;0.02188;11.43935
0.1305;11.44511;0.02191;11.44511
0.1306;11.45180;0.02208;11.45180
0.1307;11.45747;0.02199;11.45747
0.1307;11.46451;0.02199;11.46451
0.1308;11.46999;0.02200;11.46999
0.1312;11.47643;0.02199;11.47643
0.1317;11.48253;0.02196;11.48253
0.1321;11.48765;0.02162;11.48765
0.1327;11.49448;0.02150;11.49448
0.1329;11.49596;0.02143;11.49596
0.1334;11.49963;0.02155;11.49963
0.1337;11.50531;0.02180;11.50531
0.1339;11.51116;0.02187;11.51116
0.1341;11.51774;0.02206;11.51774
0.1342;11.52324;0.02189;11.52324
0.1343;11.52968;0.02196;11.52968
0.1346;11.53535;0.02198;11.53535
0.1349;11.54084;0.02208;11.54084
0.1350;11.54611;0.02227;11.54611
0.1354;11.55154;0.02231;11.55154
0.1356;11.55661;0.02240;11.55661
0.1359;11.56399;0.02240;11.56399
0.1360;11.56993;0.02238;11.56993
0.1362;11.57536;0.02236;11.57536
0.1365;11.58045;0.02239;11.58045
0.1368;11.58687;0.02222;11.58687
0.1372;11.59197;0.02223;11.59197
0.1377;11.59698;0.02231;11.59698
0.1379;11.60314;0.02224;11.60314
0.1382;11.60949;0.02245;11.60949
0.1384;11.61454;0.02250;11.61454
0.1390;11.61978;0.02275;11.61978
0.1392;11.62486;0.02284;11.62486
0.1395;11.63010;0.02301;11.63010
0.1397;11.63526;0.02303;11.63526
0.1401;11.64126;0.02331;11.64126
0.1402;11.64697;0.02337;11.64697
0.1406;11.65201;0.02359;11.65201
0.1412;11.65765;0.02403;11.65765
0.1415;11.66333;0.02413;11.66333
0.1421;11.66887;0.02430;11.66887
0.1425;11.67535;0.02437;11.67535
0.1428;11.68093;0.02440;11.68093
0.1429;11.68679;0.02464;11.68679
0.1431;11.69209;0.02477;11.69209
0.1432;11.69858;0.02476;11.69858
0.1433;11.70376;0.02473;11.70376
0.1437;11.70928;0.02502;11.70928
0.1439;11.71500;0.02489;11.71500
0.1440;11.72008;0.02486;11.72008
0.1443;11.72527;0.02517;11.72527
0.1446;11.73130;0.02509;11.73130
0.1449;11.73724;0.02517;11.73724
0.1452;11.74311;0.02509;11.74311
0.1455;11.74817;0.02513;11.74817
0.1459;11.75323;0.02485;11.75323
0.1463;11.75869;0.02507;11.75869
0.1466;11.76396;0.02497;11.76396
0.1472;11.76946;0.02478;11.76946
0.1475;11.77550;0.02475;11.77550
0.1477;11.78062;0.02477;11.78062
0.1479;11.78836;0.02466;11.78836
0.1482;11.79376;0.02462;11.79376
0.1486;11.79929;0.02447;11.79929
0.1489;11.80494;0.02432;11.80494
0.1492;11.81018;0.02431;11.81018
0.1495;11.81588;0.02447;11.81588
0.1499;11.82094;0.02439;11.82094
0.1501;11.82680;0.02435;11.82680
0.1505;11.83318;0.02419;11.83318
0.1507;11.82697;0.02412;11.82697
0.1508;11.83427;0.02403;11.83427
0.1509;11.83941;0.02418;11.83941
0.1511;11.84466;0.02403;11.84466
0.1513;11.84977;0.02382;11.84977
0.1515;11.85540;0.02379;11.85540
0.1516;11.86073;0.02359;11.86073
0.1525;11.86578;0.02353;11.86578
0.1530;11.87176;0.02337;11.87176
0.1532;11.87755;0.02340;11.87755
0.1535;11.88330;0.02337;11.88330
0.1538;11.88857;0.02344;11.88857
0.1540;11.89484;0.02340;11.89484
0.1543;11.89985;0.02325;11.89985
0.1545;11.90800;0.02318;11.90800
0.1547;11.91354;0.02333;11.91354
0.1550;11.91920;0.02301;11.91920
0.1553;11.92482;0.02308;11.92482
0.1555;11.92986;0.02317;11.92986
0.1558;11.93587;0.02304;11.93587
0.1568;11.94098;0.02250;11.94098
0.1571;11.94611;0.02238;11.94611
0.1573;11.95189;0.02215;11.95189
0.1578;11.95711;0.02200;11.95711
0.1581;11.96233;0.02174;11.96233
0.1586;11.96749;0.02152;11.96749
0.1588;11.97258;0.02162;11.97258
0.1590;11.97843;0.02153;11.97843
0.1595;11.98480;0.02159;11.98480
0.1601;11.99030;0.02170;11.99030
0.1605;11.99609;0.02186;11.99609
0.1608;12.00023;0.02210;12.00023
