Part protocol
Network name;Part_Maxymos_2_MP-001_2017-03-14_14-18-06_RMS_bl_trans150obr_tepy_000020_OK.csv
Protocol version;3.01.00






Result information
Date;2017/03/14
Time;14:18:06
Cycle number;20
Total result;OK
Triggered switch signals
Part serial number;RMS_bl_trans150obr_tepy_000020
Measuring program name;Bl_trans
Measuring program number;1
Zero X offset;0.000;mm
Tara Y offset;0.0000;RMS









Process values - curve related
Block X;12.000;mm;XMIN-X;7.665;mm
Block Y;0.0270;RMS;XMIN-Y;0.0496;RMS
Ref X;-;mm;XMAX-X;12.000;mm
Peak-peak X;4.335;mm;XMAX-Y;0.0270;RMS
Peak-peak Y;0.6782;RMS;YMIN-X;11.959;mm
;;;YMIN-Y;0.0266;RMS
;;;YMAX-X;8.498;mm
;;;YMAX-Y;0.7048;RMS

Process values - EO related;Result;Entry;Exit;XMIN-X;XMIN-Y;XMAX-X;XMAX-Y;YMIN-Y;YMIN-X;YMAX-Y;YMAX-X;Calculated result;NOK cause;Violation X;Violation Y;Ref X;Ref Y;Switch force;Y-Diff;X-Diff;Force deviation ratio;Click ratio;Contact edge
;;;;mm;RMS;mm;RMS;RMS;mm;RMS;mm;-;-;-;-;-;-;-;-;-;-;-;-;
EO-01;OK;8.225;;;;;;;;;;;;;;;;
EO-02;OK;;;;;;;;;;;0.2734;;;;;;
EO-03;OK;;;;;;;;;;;0.6782;;;;;;
EO-04;None;
EO-05;None;
EO-06;None;
EO-07;None;
EO-08;None;
EO-09;None;
EO-10;None;


















Evaluation objects settings;Reaction;X reference;Y-Reference;XMin;XMax;YMin;YMax;Entry;Exit;Curve part;Catch zone X;Catch zone Y;EO Name;EO description;Re-entry ignored;Generate statistics;X-Hysteresis;Y-Hysteresis;Down sampling rate;Calc limit min;Calc limit max;Grad limit min;Grad limit max;Hyst limit min;Hyst limit max;Speed limit min;Speed limit max;Time limit min;Time limit max;Is curve inside box;GetRef type;CalcInput1 | dx;CalcInput2 | dx;Calc operation;Average limit min;Average limit max;Break max bending;Visualization offset X;Visualization offset Y;-;-;-
EO-01;LINE-X;ABSOLUTE;ABSOLUTE;8.037;8.473;0.1000;;BELOW;NONE;ANY;+50%;+0%;;;FALSE;TRUE;0.0;0.0;1;;;;;;;;;;;;;;;;;;;0.000;0.0000;;;
EO-02;CALC;ABSOLUTE;ABSOLUTE;-0.409;;1.5166;;NONE;NONE;ANY;+0%;+0%;;;FALSE;TRUE;0.0;0.0;1;0.000000;0.500000;;;;;;;;;;;PV_TABLE_CURVE | YMAX-X;EO-01 | ENTRY;Subtraction;;;;0.000;0.0000;;;
EO-03;CALC;ABSOLUTE;ABSOLUTE;10.518;;1.3638;;NONE;NONE;ANY;+0%;+0%;;;FALSE;TRUE;0.0;0.0;1;0.000000;1.000000;;;;;;;;;;;PV_TABLE_CURVE | YMAX-Y;PV_TABLE_CURVE | YMIN-Y;Subtraction;;;;0.000;0.0000;;;
EO-04;OFF
EO-05;OFF
EO-06;OFF
EO-07;OFF
EO-08;OFF
EO-09;OFF
EO-10;OFF



















Switch signal settings;Channel;Threshold at;;Trigger from;Reference;Latch until
Type S1;X;10.370;mm;LEFT;ABSOLUTE;None
Type S2;OFF

















Device information
Device type;maXYmos TL
Device type number;5877A0
Device serial number;4915792
Firmware version;1.1.12 (r21150-TL_v1.1.x)
-
-
-
-
-
IP Address;192.168.21.20
Network name;Maxymos 2
Profibus address;10
-
-
-
Station name;Maxymos 2
Company name;
Comment;











Channel-X settings
Use the settings from global setup;True
Sensor-X type;Potentiometer
Unit;mm
Used range from;8.000;mm
Used range to;12.000;mm
Decimal places;XXX.XXX
Scaling by;Teach-In
Point 1;-0.380;mm;16.488;%
Point 2;72.105;mm;72.105;%
Invert signal;FALSE
Filter;OFF
Test point;0.000;mm
Tolerance;0.010;mm
Enable sensor test by dig-input;FALSE
Zoom from;0.000;mm
Zoom to;100.000;mm
Master Measurement Enable;FALSE
Master Measurement Nominal Position;0.000;mm
Encoder interpolation factor;-
Encoder electrical interface;-
Encoder referencing type;-
Encoder referencing edge;-
Encoder pulses per minute;-
Encoder use every nth-mark;-
Reference;-
Encoder reference points;-
Encoder coding;-
Encoder width;-
Encoder optimization;-
Encoder clock frequency;-
Termination resistor;-








Channel-Y settings
Use the settings from global setup;True
Sensor-Y type;Â±10V
Unit;RMS
Used range from;0.0000;RMS
Used range to;10.0000;RMS
Decimal places;XX.XXXX
Scaling by;Calibration Sheet
Sensitivity;1000.0000;RMS;-4.000;mV/V
Zero point;0.0000;RMS;0.000;mV/V
Invert signal;FALSE
Filter;OFF
Piezo reset;-
Test point;0.0000;RMS
Tolerance;0.0000;RMS
Enable sensor test by dig-input;FALSE
Zoom from;0.0000;RMS
Zoom to;1000.0000;RMS












Cycle control settings
Use the settings from global setup;True
Measuring function;Y (X)
Delta-X;User-Defined;0.00500;mm
START condition;Threshold-X;7.500;mm;Trigger from;LEFT
STOP condition;Threshold-X;12.000;mm;Trigger from;LEFT
Cycle time out;2.00;s
Turning point RIGHT;YMAX
Turning point LEFT;NONE
Cut curve at;NONE










Evaluation settings
Capture only first NOK-EO for statistics;False
Hysteresis X;0.0;%
Hysteresis Y;0.0;%






Trigger Y settings
Threshold at;1.2839;RMS
Value X at TRIGGER Y;0.000;mm
Approach from;BELOW






Block settings
Value X at block;XMAX
Block at;0.000;mm







Measuring curve
Number of measuring points;716
Ref. Graph on;ABSOLUTE
Curve segments;0;0;135;135;


Time;X(ABSOLUTE);Y;X (ABSOLUTE)


s;mm;RMS;mm
0.0000;7.66542;0.04956;7.66542
0.0003;7.67610;0.04874;7.67610
0.0006;7.68823;0.04842;7.68823
0.0010;7.69512;0.04782;7.69512
0.0012;7.70436;0.04755;7.70436
0.0012;7.71328;0.04747;7.71328
0.0015;7.71875;0.04714;7.71875
0.0016;7.72534;0.04694;7.72534
0.0019;7.73135;0.04678;7.73135
0.0020;7.73656;0.04700;7.73656
0.0023;7.74208;0.04684;7.74208
0.0024;7.74728;0.04696;7.74728
0.0025;7.75260;0.04717;7.75260
0.0026;7.75905;0.04722;7.75905
0.0030;7.76504;0.04730;7.76504
0.0033;7.77213;0.04732;7.77213
0.0036;7.77893;0.04725;7.77893
0.0038;7.78554;0.04711;7.78554
0.0039;7.79092;0.04696;7.79092
0.0043;7.79816;0.04686;7.79816
0.0046;7.80424;0.04950;7.80424
0.0049;7.81140;0.05853;7.81140
0.0057;7.81524;0.07913;7.81524
0.0059;7.82155;0.08408;7.82155
0.0063;7.82655;0.08955;7.82655
0.0066;7.83445;0.09290;7.83445
0.0072;7.84576;0.09701;7.84576
0.0074;7.84000;0.09723;7.84000
0.0079;7.85039;0.09762;7.85039
0.0081;7.84422;0.09740;7.84422
0.0085;7.85105;0.09629;7.85105
0.0092;7.85888;0.09375;7.85888
0.0096;7.86440;0.09188;7.86440
0.0097;7.87003;0.09115;7.87003
0.0099;7.87517;0.09015;7.87517
0.0099;7.88119;0.09007;7.88119
0.0105;7.88683;0.08670;7.88683
0.0106;7.89351;0.08578;7.89351
0.0111;7.89870;0.08252;7.89870
0.0113;7.90433;0.08171;7.90433
0.0116;7.91164;0.07952;7.91164
0.0119;7.91862;0.07821;7.91862
0.0119;7.92646;0.07802;7.92646
0.0120;7.93270;0.07761;7.93270
0.0122;7.93885;0.07587;7.93885
0.0125;7.94458;0.07440;7.94458
0.0126;7.95325;0.07398;7.95325
0.0129;7.95865;0.07201;7.95865
0.0132;7.96578;0.07041;7.96578
0.0132;7.97772;0.07020;7.97772
0.0134;7.97245;0.06916;7.97245
0.0136;7.97924;0.06839;7.97924
0.0139;7.98866;0.06679;7.98866
0.0139;8.00125;0.06661;8.00125
0.0140;7.99340;0.06608;7.99340
0.0141;7.98701;0.06555;7.98701
0.0143;7.99326;0.06478;7.99326
0.0146;8.00233;0.06353;8.00233
0.0149;8.00876;0.06231;8.00876
0.0152;8.01830;0.06084;8.01830
0.0153;8.02483;0.06065;8.02483
0.0157;8.03107;0.05856;8.03107
0.0159;8.03628;0.05801;8.03628
0.0162;8.04210;0.05677;8.04210
0.0164;8.04807;0.05594;8.04807
0.0166;8.06034;0.05542;8.06034
0.0166;8.06750;0.05531;8.06750
0.0172;8.07287;0.05299;8.07287
0.0173;8.07892;0.05272;8.07892
0.0174;8.08455;0.05234;8.08455
0.0176;8.09114;0.05188;8.09114
0.0179;8.09973;0.05090;8.09973
0.0179;8.11181;0.05076;8.11181
0.0186;8.12751;0.04893;8.12751
0.0186;8.13287;0.04867;8.13287
0.0187;8.12696;0.04842;8.12696
0.0188;8.12112;0.04821;8.12112
0.0192;8.12646;0.04732;8.12646
0.0193;8.13517;0.04695;8.13517
0.0195;8.14326;0.04627;8.14326
0.0196;8.15064;0.04611;8.15064
0.0198;8.15842;0.04585;8.15842
0.0199;8.17087;0.04568;8.17087
0.0199;8.18089;0.04547;8.18089
0.0202;8.18661;0.04484;8.18661
0.0203;8.19462;0.04474;8.19462
0.0205;8.20217;0.04434;8.20217
0.0205;8.20877;0.04420;8.20877
0.0206;8.21824;0.04409;8.21824
0.0207;8.21011;0.04396;8.21011
0.0209;8.21628;0.04628;8.21628
0.0209;8.22288;0.04881;8.22288
0.0211;8.22054;0.07026;8.22054
0.0212;8.22288;0.09443;8.22288
0.0213;8.23050;0.12045;8.23050
0.0214;8.22967;0.14713;8.22967
0.0215;8.23345;0.17337;8.23345
0.0216;8.24290;0.19880;8.24290
0.0216;8.24807;0.22308;8.24807
0.0217;8.25288;0.24634;8.25288
0.0218;8.25975;0.26832;8.25975
0.0219;8.27050;0.28940;8.27050
0.0220;8.27701;0.31053;8.27701
0.0221;8.27972;0.33364;8.27972
0.0222;8.28652;0.35804;8.28652
0.0223;8.29239;0.38213;8.29239
0.0224;8.30091;0.40572;8.30091
0.0225;8.31078;0.42914;8.31078
0.0226;8.32297;0.44051;8.32297
0.0226;8.33305;0.45171;8.33305
0.0227;8.33470;0.47354;8.33470
0.0228;8.33696;0.49442;8.33696
0.0229;8.34278;0.51385;8.34278
0.0230;8.34543;0.54086;8.34543
0.0232;8.35318;0.56534;8.35318
0.0232;8.36295;0.57304;8.36295
0.0233;8.36882;0.58035;8.36882
0.0234;8.37247;0.60076;8.37247
0.0235;8.37884;0.61321;8.37884
0.0236;8.38452;0.61890;8.38452
0.0237;8.39288;0.62988;8.39288
0.0238;8.40105;0.63977;8.40105
0.0239;8.40723;0.64898;8.40723
0.0239;8.41393;0.65323;8.41393
0.0242;8.41771;0.67444;8.41771
0.0243;8.42412;0.68012;8.42412
0.0244;8.43169;0.68502;8.43169
0.0245;8.44078;0.68943;8.44078
0.0246;8.45265;0.69308;8.45265
0.0247;8.45806;0.69629;8.45806
0.0248;8.46364;0.69885;8.46364
0.0249;8.46885;0.70101;8.46885
0.0250;8.47592;0.70315;8.47592
0.0251;8.48370;0.70419;8.48370
0.0252;8.49026;0.70475;8.49026
0.0252;8.49795;0.70477;8.49795
0.0255;8.50438;0.70333;8.50438
0.0257;8.51078;0.70130;8.51078
0.0258;8.51766;0.69963;8.51766
0.0259;8.52597;0.69777;8.52597
0.0259;8.53136;0.69670;8.53136
0.0261;8.53694;0.69169;8.53694
0.0263;8.54286;0.68739;8.54286
0.0264;8.54952;0.68418;8.54952
0.0265;8.55589;0.67911;8.55589
0.0265;8.56218;0.67734;8.56218
0.0266;8.57005;0.67559;8.57005
0.0270;8.57799;0.65944;8.57799
0.0272;8.58542;0.65054;8.58542
0.0272;8.59196;0.64827;8.59196
0.0273;8.59812;0.64597;8.59812
0.0276;8.60492;0.62679;8.60492
0.0278;8.61088;0.61655;8.61088
0.0279;8.61851;0.61407;8.61851
0.0283;8.61947;0.59321;8.61947
0.0285;8.62552;0.57990;8.62552
0.0286;8.63105;0.57462;8.63105
0.0290;8.63077;0.55285;8.63077
0.0292;8.63821;0.53926;8.63821
0.0296;8.64415;0.52039;8.64415
0.0298;8.64975;0.50694;8.64975
0.0299;8.65497;0.50148;8.65497
0.0300;8.64897;0.49365;8.64897
0.0304;8.65347;0.47276;8.65347
0.0306;8.66057;0.46502;8.66057
0.0310;8.66018;0.44469;8.66018
0.0312;8.66638;0.42981;8.66638
0.0314;8.66104;0.42267;8.66104
0.0318;8.66697;0.40375;8.66697
0.0319;8.67323;0.39682;8.67323
0.0324;8.67280;0.37654;8.67280
0.0326;8.67801;0.36569;8.67801
0.0327;8.67202;0.35919;8.67202
0.0330;8.67779;0.34666;8.67779
0.0332;8.68654;0.33871;8.68654
0.0333;8.69330;0.33669;8.69330
0.0334;8.68698;0.33266;8.68698
0.0338;8.69333;0.31350;8.69333
0.0339;8.70308;0.31170;8.70308
0.0339;8.71024;0.30997;8.71024
0.0340;8.70192;0.30617;8.70192
0.0342;8.70942;0.29904;8.70942
0.0343;8.71533;0.29552;8.71533
0.0345;8.72194;0.28867;8.72194
0.0346;8.73246;0.28698;8.73246
0.0346;8.73888;0.28510;8.73888
0.0350;8.74573;0.27223;8.74573
0.0351;8.75159;0.26745;8.75159
0.0352;8.76442;0.26438;8.76442
0.0356;8.76981;0.25395;8.76981
0.0358;8.77485;0.24674;8.77485
0.0359;8.78657;0.24397;8.78657
0.0362;8.79189;0.23432;8.79189
0.0364;8.79796;0.23048;8.79796
0.0365;8.80431;0.22641;8.80431
0.0367;8.81171;0.22151;8.81171
0.0368;8.81745;0.21907;8.81745
0.0370;8.82489;0.21551;8.82489
0.0371;8.83062;0.21328;8.83062
0.0372;8.83682;0.21097;8.83682
0.0372;8.84794;0.20862;8.84794
0.0376;8.85511;0.20081;8.85511
0.0379;8.86204;0.19438;8.86204
0.0381;8.87030;0.19022;8.87030
0.0382;8.87632;0.18822;8.87632
0.0383;8.88572;0.18626;8.88572
0.0384;8.89141;0.18324;8.89141
0.0385;8.89778;0.18146;8.89778
0.0386;8.90781;0.17961;8.90781
0.0388;8.91349;0.17592;8.91349
0.0389;8.91914;0.17323;8.91914
0.0392;8.92631;0.16892;8.92631
0.0393;8.93268;0.16724;8.93268
0.0396;8.93811;0.16217;8.93811
0.0396;8.94407;0.16062;8.94407
0.0398;8.95139;0.15812;8.95139
0.0398;8.95700;0.15726;8.95700
0.0399;8.96513;0.15651;8.96513
0.0400;8.97097;0.15488;8.97097
0.0401;8.97642;0.15268;8.97642
0.0402;8.98321;0.15106;8.98321
0.0405;8.99010;0.14662;8.99010
0.0406;9.00356;0.14596;9.00356
0.0406;9.00953;0.14531;9.00953
0.0407;9.00346;0.14391;9.00346
0.0411;9.01041;0.13854;9.01041
0.0413;9.01700;0.13600;9.01700
0.0415;9.02202;0.13269;9.02202
0.0416;9.02794;0.13200;9.02794
0.0418;9.03336;0.12956;9.03336
0.0419;9.04082;0.12779;9.04082
0.0422;9.04841;0.12442;9.04841
0.0423;9.05416;0.12341;9.05416
0.0425;9.06006;0.12099;9.06006
0.0426;9.06597;0.12005;9.06597
0.0428;9.07253;0.11717;9.07253
0.0431;9.07770;0.11404;9.07770
0.0432;9.08336;0.11273;9.08336
0.0436;9.08923;0.10923;9.08923
0.0439;9.09607;0.10651;9.09607
0.0442;9.10143;0.10388;9.10143
0.0444;9.10780;0.10180;9.10780
0.0445;9.11296;0.10047;9.11296
0.0448;9.11958;0.09845;9.11958
0.0449;9.12501;0.09761;9.12501
0.0450;9.13099;0.09652;9.13099
0.0452;9.13872;0.09501;9.13872
0.0455;9.14660;0.09271;9.14660
0.0456;9.15197;0.09166;9.15197
0.0458;9.15954;0.09028;9.15954
0.0459;9.16636;0.08957;9.16636
0.0462;9.17159;0.08806;9.17159
0.0463;9.17738;0.08737;9.17738
0.0464;9.18243;0.08658;9.18243
0.0466;9.19345;0.08576;9.19345
0.0470;9.19887;0.08292;9.19887
0.0472;9.20568;0.08187;9.20568
0.0472;9.21392;0.08149;9.21392
0.0476;9.21914;0.07951;9.21914
0.0478;9.22445;0.07854;9.22445
0.0479;9.22982;0.07778;9.22982
0.0479;9.23654;0.07751;9.23654
0.0481;9.24246;0.07645;9.24246
0.0482;9.24813;0.07604;9.24813
0.0485;9.25346;0.07444;9.25346
0.0486;9.26294;0.07414;9.26294
0.0489;9.26939;0.07248;9.26939
0.0491;9.27541;0.07160;9.27541
0.0493;9.28041;0.07066;9.28041
0.0496;9.28690;0.06949;9.28690
0.0499;9.29577;0.06793;9.29577
0.0502;9.30189;0.06687;9.30189
0.0505;9.30757;0.06562;9.30757
0.0506;9.31402;0.06535;9.31402
0.0509;9.32146;0.06430;9.32146
0.0511;9.32733;0.06327;9.32733
0.0512;9.33426;0.06288;9.33426
0.0513;9.33968;0.06289;9.33968
0.0514;9.33427;0.06217;9.33427
0.0518;9.34022;0.06065;9.34022
0.0519;9.34876;0.06053;9.34876
0.0519;9.35604;0.06033;9.35604
0.0520;9.35002;0.05978;9.35002
0.0523;9.35577;0.05893;9.35577
0.0525;9.36216;0.05806;9.36216
0.0526;9.36842;0.05780;9.36842
0.0528;9.37420;0.05668;9.37420
0.0531;9.37933;0.05597;9.37933
0.0532;9.38450;0.05554;9.38450
0.0532;9.39464;0.05550;9.39464
0.0536;9.40068;0.05434;9.40068
0.0537;9.40681;0.05379;9.40681
0.0539;9.41893;0.05333;9.41893
0.0539;9.43361;0.05326;9.43361
0.0540;9.42621;0.05299;9.42621
0.0545;9.43167;0.05155;9.43167
0.0545;9.43803;0.05144;9.43803
0.0546;9.44788;0.05142;9.44788
0.0547;9.44033;0.05085;9.44033
0.0549;9.44761;0.05027;9.44761
0.0552;9.45336;0.04958;9.45336
0.0552;9.46568;0.04920;9.46568
0.0554;9.47116;0.04882;9.47116
0.0556;9.47666;0.04827;9.47666
0.0558;9.48216;0.04789;9.48216
0.0559;9.49180;0.04782;9.49180
0.0559;9.49970;0.04761;9.49970
0.0561;9.49414;0.04734;9.49414
0.0563;9.50058;0.04666;9.50058
0.0565;9.50880;0.04621;9.50880
0.0566;9.51436;0.04605;9.51436
0.0572;9.52008;0.04496;9.52008
0.0572;9.52558;0.04479;9.52558
0.0573;9.53181;0.04490;9.53181
0.0578;9.53775;0.04387;9.53775
0.0579;9.54465;0.04371;9.54465
0.0585;9.54989;0.04262;9.54989
0.0586;9.56216;0.04246;9.56216
0.0591;9.56960;0.04144;9.56960
0.0592;9.57833;0.04119;9.57833
0.0594;9.58468;0.04104;9.58468
0.0596;9.59239;0.04080;9.59239
0.0598;9.59787;0.04034;9.59787
0.0599;9.60301;0.04010;9.60301
0.0599;9.61016;0.04014;9.61016
0.0601;9.60493;0.03980;9.60493
0.0602;9.61220;0.03963;9.61220
0.0606;9.62432;0.03911;9.62432
0.0612;9.63346;0.03816;9.63346
0.0612;9.64137;0.03802;9.64137
0.0613;9.63498;0.03808;9.63498
0.0619;9.64309;0.03723;9.64309
0.0622;9.65207;0.03691;9.65207
0.0624;9.65847;0.03689;9.65847
0.0625;9.66673;0.03669;9.66673
0.0626;9.67301;0.03668;9.67301
0.0629;9.67897;0.03654;9.67897
0.0632;9.68873;0.03653;9.68873
0.0633;9.69438;0.03629;9.69438
0.0637;9.69993;0.03604;9.69993
0.0639;9.70757;0.03601;9.70757
0.0639;9.71282;0.03602;9.71282
0.0642;9.71797;0.03610;9.71797
0.0643;9.72327;0.03587;9.72327
0.0644;9.72968;0.03585;9.72968
0.0645;9.73681;0.03580;9.73681
0.0646;9.74430;0.03579;9.74430
0.0647;9.74932;0.03558;9.74932
0.0649;9.75456;0.03565;9.75456
0.0650;9.76022;0.03551;9.76022
0.0652;9.76832;0.03560;9.76832
0.0654;9.77440;0.03545;9.77440
0.0656;9.78014;0.03545;9.78014
0.0657;9.78529;0.03533;9.78529
0.0659;9.79287;0.03529;9.79287
0.0660;9.79871;0.03525;9.79871
0.0662;9.80519;0.03533;9.80519
0.0664;9.81136;0.03524;9.81136
0.0665;9.81929;0.03501;9.81929
0.0666;9.83026;0.03508;9.83026
0.0669;9.83562;0.03510;9.83562
0.0672;9.84550;0.03503;9.84550
0.0672;9.85125;0.03499;9.85125
0.0676;9.86034;0.03498;9.86034
0.0679;9.86842;0.03495;9.86842
0.0683;9.87443;0.03456;9.87443
0.0684;9.88194;0.03452;9.88194
0.0685;9.89017;0.03429;9.89017
0.0688;9.89540;0.03413;9.89540
0.0690;9.90110;0.03394;9.90110
0.0691;9.90626;0.03380;9.90626
0.0692;9.91418;0.03373;9.91418
0.0699;9.92129;0.03299;9.92129
0.0702;9.92718;0.03282;9.92718
0.0704;9.93332;0.03263;9.93332
0.0706;9.94095;0.03240;9.94095
0.0708;9.94769;0.03223;9.94769
0.0710;9.95417;0.03189;9.95417
0.0712;9.96139;0.03196;9.96139
0.0712;9.96789;0.03185;9.96789
0.0718;9.97310;0.03113;9.97310
0.0719;9.98367;0.03112;9.98367
0.0722;9.98882;0.03103;9.98882
0.0724;9.99479;0.03077;9.99479
0.0726;10.00307;0.03070;10.00307
0.0732;10.00923;0.03017;10.00923
0.0732;10.01686;0.03027;10.01686
0.0738;10.02217;0.02986;10.02217
0.0739;10.03446;0.02975;10.03446
0.0739;10.04341;0.02967;10.04341
0.0740;10.03611;0.02970;10.03611
0.0743;10.04153;0.02958;10.04153
0.0745;10.05293;0.02944;10.05293
0.0746;10.06107;0.02945;10.06107
0.0749;10.06817;0.02923;10.06817
0.0751;10.07318;0.02935;10.07318
0.0752;10.08258;0.02934;10.08258
0.0755;10.08790;0.02927;10.08790
0.0755;10.09423;0.02925;10.09423
0.0758;10.10207;0.02922;10.10207
0.0759;10.10803;0.02909;10.10803
0.0761;10.11333;0.02920;10.11333
0.0762;10.12107;0.02914;10.12107
0.0768;10.12650;0.02900;10.12650
0.0769;10.13187;0.02918;10.13187
0.0773;10.13696;0.02915;10.13696
0.0775;10.14301;0.02946;10.14301
0.0775;10.14904;0.02941;10.14904
0.0776;10.15639;0.02937;10.15639
0.0778;10.16271;0.02952;10.16271
0.0779;10.16828;0.02936;10.16828
0.0782;10.17418;0.02972;10.17418
0.0782;10.17966;0.02986;10.17966
0.0788;10.18493;0.03015;10.18493
0.0789;10.19221;0.03015;10.19221
0.0792;10.19886;0.03034;10.19886
0.0794;10.20422;0.03016;10.20422
0.0795;10.21563;0.03040;10.21563
0.0799;10.22135;0.03027;10.22135
0.0801;10.22659;0.03017;10.22659
0.0802;10.23162;0.03029;10.23162
0.0802;10.23871;0.03033;10.23871
0.0805;10.24720;0.03029;10.24720
0.0809;10.26229;0.03010;10.26229
0.0812;10.26739;0.03014;10.26739
0.0815;10.27273;0.03024;10.27273
0.0815;10.28343;0.03031;10.28343
0.0822;10.29235;0.03073;10.29235
0.0822;10.29986;0.03057;10.29986
0.0829;10.30796;0.03082;10.30796
0.0833;10.31311;0.03098;10.31311
0.0835;10.32044;0.03113;10.32044
0.0837;10.32602;0.03118;10.32602
0.0841;10.33282;0.03135;10.33282
0.0842;10.33865;0.03150;10.33865
0.0845;10.34440;0.03152;10.34440
0.0848;10.35059;0.03174;10.35059
0.0849;10.35599;0.03176;10.35599
0.0851;10.36136;0.03199;10.36136
0.0852;10.36640;0.03194;10.36640
0.0855;10.37321;0.03219;10.37321
0.0861;10.37941;0.03245;10.37941
0.0862;10.38829;0.03256;10.38829
0.0865;10.39594;0.03270;10.39594
0.0869;10.40918;0.03257;10.40918
0.0870;10.40369;0.03261;10.40369
0.0872;10.41257;0.03256;10.41257
0.0875;10.41897;0.03259;10.41897
0.0875;10.42504;0.03245;10.42504
0.0875;10.43434;0.03245;10.43434
0.0877;10.42908;0.03255;10.42908
0.0879;10.43610;0.03261;10.43610
0.0882;10.44611;0.03259;10.44611
0.0882;10.45285;0.03269;10.45285
0.0884;10.45927;0.03271;10.45927
0.0886;10.46544;0.03260;10.46544
0.0888;10.47553;0.03262;10.47553
0.0892;10.48099;0.03268;10.48099
0.0895;10.48643;0.03267;10.48643
0.0895;10.49256;0.03265;10.49256
0.0899;10.49801;0.03248;10.49801
0.0900;10.50380;0.03251;10.50380
0.0902;10.51067;0.03259;10.51067
0.0907;10.51606;0.03278;10.51606
0.0909;10.52407;0.03281;10.52407
0.0912;10.52923;0.03288;10.52923
0.0913;10.53471;0.03298;10.53471
0.0915;10.54298;0.03314;10.54298
0.0917;10.54884;0.03313;10.54884
0.0921;10.55575;0.03309;10.55575
0.0922;10.56584;0.03315;10.56584
0.0925;10.57201;0.03310;10.57201
0.0926;10.57801;0.03307;10.57801
0.0927;10.58343;0.03309;10.58343
0.0928;10.58989;0.03296;10.58989
0.0929;10.59695;0.03309;10.59695
0.0932;10.60485;0.03304;10.60485
0.0933;10.61032;0.03300;10.61032
0.0935;10.61827;0.03293;10.61827
0.0938;10.62675;0.03277;10.62675
0.0939;10.63350;0.03279;10.63350
0.0945;10.63989;0.03232;10.63989
0.0948;10.64606;0.03212;10.64606
0.0949;10.65620;0.03205;10.65620
0.0955;10.66283;0.03158;10.66283
0.0957;10.66836;0.03142;10.66836
0.0958;10.67448;0.03122;10.67448
0.0959;10.68182;0.03116;10.68182
0.0960;10.68714;0.03116;10.68714
0.0962;10.69612;0.03090;10.69612
0.0965;10.70114;0.03069;10.70114
0.0967;10.70664;0.03035;10.70664
0.0969;10.71517;0.03033;10.71517
0.0972;10.72166;0.02999;10.72166
0.0974;10.72782;0.02969;10.72782
0.0975;10.73794;0.02953;10.73794
0.0978;10.74314;0.02960;10.74314
0.0981;10.74884;0.02925;10.74884
0.0982;10.75540;0.02913;10.75540
0.0986;10.76221;0.02863;10.76221
0.0989;10.77306;0.02865;10.77306
0.0991;10.77938;0.02842;10.77938
0.0993;10.78565;0.02837;10.78565
0.0995;10.79388;0.02829;10.79388
0.0995;10.79959;0.02826;10.79959
0.0999;10.80499;0.02822;10.80499
0.1002;10.81230;0.02815;10.81230
0.1002;10.82027;0.02802;10.82027
0.1003;10.81103;0.02809;10.81103
0.1006;10.81699;0.02803;10.81699
0.1008;10.82238;0.02806;10.82238
0.1008;10.83030;0.02812;10.83030
0.1009;10.83662;0.02813;10.83662
0.1010;10.82991;0.02801;10.82991
0.1012;10.83624;0.02785;10.83624
0.1015;10.84192;0.02789;10.84192
0.1019;10.84886;0.02785;10.84886
0.1021;10.85390;0.02791;10.85390
0.1023;10.85951;0.02801;10.85951
0.1025;10.86776;0.02814;10.86776
0.1026;10.87339;0.02813;10.87339
0.1029;10.88156;0.02813;10.88156
0.1031;10.88753;0.02814;10.88753
0.1032;10.89315;0.02813;10.89315
0.1035;10.89860;0.02816;10.89860
0.1041;10.90413;0.02840;10.90413
0.1043;10.90988;0.02847;10.90988
0.1045;10.91530;0.02861;10.91530
0.1047;10.92146;0.02871;10.92146
0.1049;10.92702;0.02883;10.92702
0.1052;10.93289;0.02892;10.93289
0.1055;10.93832;0.02892;10.93832
0.1058;10.94549;0.02884;10.94549
0.1062;10.95441;0.02916;10.95441
0.1062;10.96029;0.02920;10.96029
0.1063;10.95322;0.02913;10.95322
0.1065;10.95939;0.02911;10.95939
0.1068;10.96667;0.02934;10.96667
0.1069;10.97500;0.02937;10.97500
0.1070;10.96979;0.02935;10.96979
0.1072;10.97543;0.02951;10.97543
0.1074;10.98091;0.02971;10.98091
0.1075;10.98897;0.02972;10.98897
0.1079;10.99424;0.02972;10.99424
0.1082;11.00401;0.02956;11.00401
0.1086;11.01028;0.02949;11.01028
0.1088;11.01676;0.02944;11.01676
0.1089;11.02184;0.02945;11.02184
0.1095;11.03083;0.02921;11.03083
0.1101;11.03649;0.02859;11.03649
0.1105;11.04339;0.02843;11.04339
0.1108;11.04913;0.02834;11.04913
0.1110;11.05475;0.02842;11.05475
0.1112;11.06264;0.02831;11.06264
0.1118;11.06954;0.02819;11.06954
0.1122;11.07520;0.02814;11.07520
0.1122;11.08051;0.02814;11.08051
0.1126;11.08599;0.02784;11.08599
0.1128;11.09172;0.02791;11.09172
0.1129;11.09864;0.02797;11.09864
0.1132;11.10530;0.02783;11.10530
0.1135;11.11543;0.02769;11.11543
0.1136;11.12058;0.02771;11.12058
0.1139;11.13054;0.02764;11.13054
0.1142;11.14140;0.02741;11.14140
0.1145;11.14806;0.02722;11.14806
0.1149;11.15503;0.02718;11.15503
0.1155;11.16242;0.02729;11.16242
0.1162;11.16893;0.02705;11.16893
0.1168;11.17475;0.02705;11.17475
0.1169;11.18071;0.02719;11.18071
0.1172;11.18584;0.02711;11.18584
0.1174;11.19132;0.02737;11.19132
0.1175;11.20141;0.02734;11.20141
0.1179;11.20745;0.02741;11.20745
0.1182;11.21423;0.02737;11.21423
0.1186;11.21933;0.02752;11.21933
0.1188;11.22666;0.02755;11.22666
0.1192;11.23282;0.02757;11.23282
0.1195;11.23918;0.02763;11.23918
0.1196;11.24739;0.02772;11.24739
0.1201;11.25375;0.02794;11.25375
0.1202;11.26193;0.02790;11.26193
0.1202;11.26766;0.02786;11.26766
0.1208;11.27338;0.02816;11.27338
0.1209;11.28347;0.02830;11.28347
0.1212;11.28945;0.02826;11.28945
0.1215;11.29502;0.02815;11.29502
0.1221;11.30203;0.02849;11.30203
0.1222;11.30792;0.02879;11.30792
0.1228;11.31507;0.02931;11.31507
0.1229;11.32174;0.02928;11.32174
0.1234;11.32708;0.02953;11.32708
0.1235;11.33412;0.02972;11.33412
0.1239;11.34062;0.02996;11.34062
0.1241;11.34695;0.02988;11.34695
0.1242;11.35409;0.03004;11.35409
0.1248;11.35989;0.03005;11.35989
0.1249;11.36526;0.02998;11.36526
0.1255;11.37206;0.03018;11.37206
0.1255;11.37709;0.03018;11.37709
0.1259;11.38241;0.03004;11.38241
0.1260;11.38747;0.03006;11.38747
0.1262;11.39726;0.03010;11.39726
0.1265;11.40337;0.03025;11.40337
0.1269;11.41084;0.03046;11.41084
0.1275;11.42164;0.03086;11.42164
0.1281;11.42746;0.03103;11.42746
0.1282;11.43851;0.03112;11.43851
0.1283;11.44389;0.03110;11.44389
0.1284;11.44975;0.03111;11.44975
0.1285;11.45475;0.03108;11.45475
0.1287;11.46113;0.03117;11.46113
0.1288;11.46819;0.03125;11.46819
0.1291;11.47374;0.03117;11.47374
0.1295;11.48032;0.03138;11.48032
0.1302;11.48659;0.03152;11.48659
0.1309;11.49210;0.03147;11.49210
0.1313;11.49722;0.03121;11.49722
0.1316;11.50281;0.03107;11.50281
0.1322;11.50888;0.03082;11.50888
0.1327;11.51445;0.03046;11.51445
0.1328;11.51973;0.03061;11.51973
0.1329;11.52723;0.03067;11.52723
0.1331;11.53266;0.03047;11.53266
0.1332;11.53773;0.03054;11.53773
0.1335;11.54578;0.03060;11.54578
0.1338;11.55187;0.03027;11.55187
0.1342;11.55864;0.03023;11.55864
0.1345;11.56557;0.03002;11.56557
0.1346;11.57165;0.03002;11.57165
0.1348;11.57701;0.02996;11.57701
0.1349;11.58774;0.02992;11.58774
0.1355;11.59512;0.02952;11.59512
0.1357;11.58960;0.02956;11.58960
0.1359;11.59643;0.02948;11.59643
0.1362;11.60281;0.02923;11.60281
0.1365;11.61066;0.02925;11.61066
0.1368;11.61834;0.02915;11.61834
0.1372;11.62428;0.02897;11.62428
0.1376;11.63277;0.02880;11.63277
0.1379;11.64041;0.02867;11.64041
0.1382;11.64954;0.02839;11.64954
0.1385;11.65691;0.02828;11.65691
0.1387;11.65163;0.02818;11.65163
0.1389;11.65711;0.02814;11.65711
0.1392;11.66272;0.02817;11.66272
0.1395;11.66996;0.02790;11.66996
0.1402;11.67715;0.02803;11.67715
0.1402;11.68323;0.02792;11.68323
0.1403;11.67774;0.02791;11.67774
0.1405;11.68334;0.02783;11.68334
0.1409;11.69038;0.02778;11.69038
0.1411;11.69580;0.02767;11.69580
0.1412;11.70198;0.02761;11.70198
0.1412;11.70913;0.02765;11.70913
0.1416;11.71531;0.02753;11.71531
0.1419;11.72174;0.02733;11.72174
0.1420;11.71632;0.02759;11.71632
0.1420;11.72176;0.02756;11.72176
0.1422;11.72733;0.02751;11.72733
0.1425;11.73338;0.02758;11.73338
0.1428;11.73926;0.02736;11.73926
0.1432;11.75170;0.02764;11.75170
0.1432;11.75727;0.02768;11.75727
0.1433;11.74930;0.02769;11.74930
0.1439;11.75603;0.02802;11.75603
0.1441;11.76162;0.02798;11.76162
0.1445;11.76730;0.02831;11.76730
0.1451;11.77230;0.02868;11.77230
0.1452;11.78079;0.02876;11.78079
0.1455;11.78592;0.02893;11.78592
0.1457;11.79115;0.02914;11.79115
0.1459;11.79703;0.02928;11.79703
0.1462;11.80329;0.02929;11.80329
0.1465;11.80920;0.02943;11.80920
0.1468;11.81537;0.02970;11.81537
0.1472;11.82161;0.02977;11.82161
0.1475;11.82666;0.02994;11.82666
0.1482;11.83315;0.03003;11.83315
0.1486;11.83865;0.02988;11.83865
0.1488;11.84410;0.02984;11.84410
0.1492;11.85177;0.02965;11.85177
0.1495;11.85710;0.02962;11.85710
0.1499;11.86777;0.02940;11.86777
0.1500;11.86243;0.02931;11.86243
0.1505;11.87232;0.02901;11.87232
0.1515;11.87768;0.02821;11.87768
0.1518;11.88529;0.02827;11.88529
0.1522;11.89204;0.02800;11.89204
0.1524;11.89909;0.02806;11.89909
0.1525;11.90455;0.02802;11.90455
0.1525;11.90963;0.02803;11.90963
0.1529;11.91644;0.02777;11.91644
0.1532;11.92424;0.02750;11.92424
0.1532;11.93450;0.02747;11.93450
0.1533;11.92509;0.02742;11.92509
0.1538;11.93108;0.02714;11.93108
0.1538;11.93926;0.02702;11.93926
0.1540;11.93375;0.02705;11.93375
0.1545;11.94500;0.02699;11.94500
0.1547;11.93974;0.02708;11.93974
0.1549;11.94492;0.02700;11.94492
0.1550;11.93989;0.02709;11.93989
0.1552;11.94576;0.02718;11.94576
0.1558;11.95094;0.02697;11.95094
0.1561;11.95669;0.02674;11.95669
0.1562;11.95870;0.02660;11.95870
0.1565;11.96262;0.02664;11.96262
0.1571;11.96817;0.02667;11.96817
0.1572;11.97409;0.02662;11.97409
0.1576;11.97968;0.02678;11.97968
0.1579;11.98516;0.02680;11.98516
0.1585;11.99292;0.02680;11.99292
0.1588;11.99805;0.02672;11.99805
0.1589;12.00016;0.02697;12.00016
