Part protocol
Network name;Part_Maxymos_2_MP-001_2017-03-14_14-21-41_RMS_bl_trans150obr_tepy_000022_OK.csv
Protocol version;3.01.00






Result information
Date;2017/03/14
Time;14:21:41
Cycle number;22
Total result;OK
Triggered switch signals
Part serial number;RMS_bl_trans150obr_tepy_000022
Measuring program name;Bl_trans
Measuring program number;1
Zero X offset;0.000;mm
Tara Y offset;0.0000;RMS









Process values - curve related
Block X;12.000;mm;XMIN-X;7.649;mm
Block Y;0.0229;RMS;XMIN-Y;0.0551;RMS
Ref X;-;mm;XMAX-X;12.000;mm
Peak-peak X;4.351;mm;XMAX-Y;0.0229;RMS
Peak-peak Y;0.8352;RMS;YMIN-X;11.320;mm
;;;YMIN-Y;0.0218;RMS
;;;YMAX-X;8.485;mm
;;;YMAX-Y;0.8570;RMS

Process values - EO related;Result;Entry;Exit;XMIN-X;XMIN-Y;XMAX-X;XMAX-Y;YMIN-Y;YMIN-X;YMAX-Y;YMAX-X;Calculated result;NOK cause;Violation X;Violation Y;Ref X;Ref Y;Switch force;Y-Diff;X-Diff;Force deviation ratio;Click ratio;Contact edge
;;;;mm;RMS;mm;RMS;RMS;mm;RMS;mm;-;-;-;-;-;-;-;-;-;-;-;-;
EO-01;OK;8.225;;;;;;;;;;;;;;;;
EO-02;OK;;;;;;;;;;;0.2596;;;;;;
EO-03;OK;;;;;;;;;;;0.8352;;;;;;
EO-04;None;
EO-05;None;
EO-06;None;
EO-07;None;
EO-08;None;
EO-09;None;
EO-10;None;


















Evaluation objects settings;Reaction;X reference;Y-Reference;XMin;XMax;YMin;YMax;Entry;Exit;Curve part;Catch zone X;Catch zone Y;EO Name;EO description;Re-entry ignored;Generate statistics;X-Hysteresis;Y-Hysteresis;Down sampling rate;Calc limit min;Calc limit max;Grad limit min;Grad limit max;Hyst limit min;Hyst limit max;Speed limit min;Speed limit max;Time limit min;Time limit max;Is curve inside box;GetRef type;CalcInput1 | dx;CalcInput2 | dx;Calc operation;Average limit min;Average limit max;Break max bending;Visualization offset X;Visualization offset Y;-;-;-
EO-01;LINE-X;ABSOLUTE;ABSOLUTE;8.037;8.473;0.1000;;BELOW;NONE;ANY;+50%;+0%;;;FALSE;TRUE;0.0;0.0;1;;;;;;;;;;;;;;;;;;;0.000;0.0000;;;
EO-02;CALC;ABSOLUTE;ABSOLUTE;-0.409;;1.5166;;NONE;NONE;ANY;+0%;+0%;;;FALSE;TRUE;0.0;0.0;1;0.000000;0.500000;;;;;;;;;;;PV_TABLE_CURVE | YMAX-X;EO-01 | ENTRY;Subtraction;;;;0.000;0.0000;;;
EO-03;CALC;ABSOLUTE;ABSOLUTE;10.518;;1.3638;;NONE;NONE;ANY;+0%;+0%;;;FALSE;TRUE;0.0;0.0;1;0.000000;1.000000;;;;;;;;;;;PV_TABLE_CURVE | YMAX-Y;PV_TABLE_CURVE | YMIN-Y;Subtraction;;;;0.000;0.0000;;;
EO-04;OFF
EO-05;OFF
EO-06;OFF
EO-07;OFF
EO-08;OFF
EO-09;OFF
EO-10;OFF



















Switch signal settings;Channel;Threshold at;;Trigger from;Reference;Latch until
Type S1;X;10.370;mm;LEFT;ABSOLUTE;None
Type S2;OFF

















Device information
Device type;maXYmos TL
Device type number;5877A0
Device serial number;4915792
Firmware version;1.1.12 (r21150-TL_v1.1.x)
-
-
-
-
-
IP Address;192.168.21.20
Network name;Maxymos 2
Profibus address;10
-
-
-
Station name;Maxymos 2
Company name;
Comment;











Channel-X settings
Use the settings from global setup;True
Sensor-X type;Potentiometer
Unit;mm
Used range from;8.000;mm
Used range to;12.000;mm
Decimal places;XXX.XXX
Scaling by;Teach-In
Point 1;-0.380;mm;16.488;%
Point 2;72.105;mm;72.105;%
Invert signal;FALSE
Filter;OFF
Test point;0.000;mm
Tolerance;0.010;mm
Enable sensor test by dig-input;FALSE
Zoom from;0.000;mm
Zoom to;100.000;mm
Master Measurement Enable;FALSE
Master Measurement Nominal Position;0.000;mm
Encoder interpolation factor;-
Encoder electrical interface;-
Encoder referencing type;-
Encoder referencing edge;-
Encoder pulses per minute;-
Encoder use every nth-mark;-
Reference;-
Encoder reference points;-
Encoder coding;-
Encoder width;-
Encoder optimization;-
Encoder clock frequency;-
Termination resistor;-








Channel-Y settings
Use the settings from global setup;True
Sensor-Y type;Â±10V
Unit;RMS
Used range from;0.0000;RMS
Used range to;10.0000;RMS
Decimal places;XX.XXXX
Scaling by;Calibration Sheet
Sensitivity;1000.0000;RMS;-4.000;mV/V
Zero point;0.0000;RMS;0.000;mV/V
Invert signal;FALSE
Filter;OFF
Piezo reset;-
Test point;0.0000;RMS
Tolerance;0.0000;RMS
Enable sensor test by dig-input;FALSE
Zoom from;0.0000;RMS
Zoom to;1000.0000;RMS












Cycle control settings
Use the settings from global setup;True
Measuring function;Y (X)
Delta-X;User-Defined;0.00500;mm
START condition;Threshold-X;7.500;mm;Trigger from;LEFT
STOP condition;Threshold-X;12.000;mm;Trigger from;LEFT
Cycle time out;2.00;s
Turning point RIGHT;YMAX
Turning point LEFT;NONE
Cut curve at;NONE










Evaluation settings
Capture only first NOK-EO for statistics;False
Hysteresis X;0.0;%
Hysteresis Y;0.0;%






Trigger Y settings
Threshold at;1.2839;RMS
Value X at TRIGGER Y;0.000;mm
Approach from;BELOW






Block settings
Value X at block;XMAX
Block at;0.000;mm







Measuring curve
Number of measuring points;737
Ref. Graph on;ABSOLUTE
Curve segments;0;141;140;737;


Time;X(ABSOLUTE);Y;X (ABSOLUTE)


s;mm;RMS;mm
0.0000;7.64943;0.05505;7.64943
0.0003;7.66124;0.05375;7.66124
0.0005;7.66729;0.05316;7.66729
0.0007;7.67457;0.05224;7.67457
0.0009;7.68026;0.05151;7.68026
0.0012;7.68558;0.05076;7.68558
0.0014;7.69265;0.04989;7.69265
0.0015;7.69879;0.04931;7.69879
0.0017;7.70425;0.04896;7.70425
0.0018;7.71054;0.04843;7.71054
0.0019;7.71615;0.04801;7.71615
0.0021;7.72308;0.04750;7.72308
0.0022;7.72815;0.04717;7.72815
0.0024;7.73334;0.04662;7.73334
0.0029;7.73900;0.04557;7.73900
0.0031;7.74485;0.04527;7.74485
0.0032;7.75115;0.04516;7.75115
0.0034;7.75639;0.04506;7.75639
0.0037;7.76221;0.04487;7.76221
0.0041;7.76751;0.04436;7.76751
0.0045;7.77259;0.04377;7.77259
0.0048;7.77849;0.04309;7.77849
0.0051;7.78355;0.04231;7.78355
0.0055;7.78874;0.04145;7.78874
0.0060;7.79463;0.04051;7.79463
0.0063;7.79991;0.03981;7.79991
0.0066;7.80539;0.03937;7.80539
0.0072;7.81149;0.03854;7.81149
0.0078;7.81719;0.03752;7.81719
0.0082;7.82278;0.03674;7.82278
0.0085;7.82926;0.03645;7.82926
0.0087;7.83458;0.03607;7.83458
0.0095;7.84128;0.03513;7.84128
0.0097;7.84689;0.03503;7.84689
0.0099;7.85242;0.03461;7.85242
0.0102;7.85794;0.03431;7.85794
0.0104;7.86438;0.03414;7.86438
0.0108;7.87040;0.03353;7.87040
0.0109;7.87630;0.03364;7.87630
0.0112;7.88342;0.03348;7.88342
0.0116;7.88857;0.03337;7.88857
0.0120;7.89406;0.03304;7.89406
0.0125;7.89948;0.03284;7.89948
0.0129;7.90453;0.03284;7.90453
0.0131;7.90997;0.03281;7.90997
0.0134;7.91609;0.03264;7.91609
0.0135;7.92291;0.03250;7.92291
0.0137;7.92945;0.03242;7.92945
0.0140;7.93717;0.03231;7.93717
0.0142;7.94316;0.03218;7.94316
0.0144;7.94866;0.03222;7.94866
0.0146;7.95415;0.03212;7.95415
0.0148;7.95938;0.03227;7.95938
0.0151;7.96521;0.03201;7.96521
0.0153;7.97152;0.03205;7.97152
0.0156;7.97678;0.03207;7.97678
0.0158;7.98264;0.03207;7.98264
0.0160;7.98790;0.03197;7.98790
0.0164;7.99345;0.03189;7.99345
0.0166;7.99917;0.03209;7.99917
0.0168;8.00425;0.03161;8.00425
0.0170;8.01062;0.03175;8.01062
0.0171;8.01596;0.03173;8.01596
0.0173;8.02303;0.03162;8.02303
0.0174;8.02911;0.03159;8.02911
0.0176;8.03514;0.03144;8.03514
0.0177;8.04041;0.03128;8.04041
0.0179;8.04701;0.03131;8.04701
0.0180;8.05372;0.03114;8.05372
0.0180;8.05927;0.03104;8.05927
0.0182;8.06431;0.03105;8.06431
0.0183;8.07146;0.03089;8.07146
0.0185;8.07818;0.03082;8.07818
0.0186;8.08433;0.03074;8.08433
0.0188;8.09066;0.03091;8.09066
0.0190;8.09784;0.03064;8.09784
0.0192;8.10302;0.03046;8.10302
0.0194;8.10869;0.03037;8.10869
0.0196;8.11489;0.03056;8.11489
0.0199;8.12131;0.03034;8.12131
0.0202;8.12805;0.03043;8.12805
0.0204;8.13460;0.03022;8.13460
0.0206;8.14063;0.02992;8.14063
0.0207;8.14627;0.03008;8.14627
0.0208;8.15444;0.02997;8.15444
0.0209;8.16215;0.03003;8.16215
0.0210;8.16782;0.03007;8.16782
0.0211;8.17296;0.02992;8.17296
0.0213;8.17911;0.02997;8.17911
0.0214;8.18749;0.02998;8.18749
0.0216;8.19380;0.02993;8.19380
0.0217;8.20005;0.02977;8.20005
0.0219;8.20518;0.02991;8.20518
0.0220;8.21032;0.02991;8.21032
0.0223;8.21613;0.03912;8.21613
0.0224;8.22205;0.06690;8.22205
0.0225;8.22468;0.09452;8.22468
0.0226;8.22815;0.12599;8.22815
0.0227;8.23110;0.16015;8.23110
0.0228;8.23561;0.19524;8.23561
0.0229;8.24255;0.22968;8.24255
0.0230;8.24781;0.26305;8.24781
0.0231;8.24813;0.29535;8.24813
0.0232;8.25183;0.32735;8.25183
0.0232;8.25883;0.34366;8.25883
0.0233;8.26602;0.36058;8.26602
0.0233;8.27160;0.37761;8.27160
0.0234;8.27835;0.41153;8.27835
0.0235;8.28413;0.44524;8.28413
0.0236;8.28953;0.47762;8.28953
0.0237;8.29668;0.50834;8.29668
0.0238;8.30379;0.53779;8.30379
0.0239;8.30908;0.55163;8.30908
0.0239;8.31541;0.56519;8.31541
0.0240;8.32113;0.57860;8.32113
0.0240;8.32915;0.60359;8.32915
0.0241;8.33416;0.61567;8.33416
0.0241;8.33938;0.62741;8.33938
0.0242;8.34398;0.64976;8.34398
0.0243;8.34566;0.67055;8.34566
0.0245;8.34815;0.69918;8.34815
0.0246;8.35473;0.71667;8.35473
0.0247;8.36200;0.73271;8.36200
0.0248;8.36934;0.74754;8.36934
0.0248;8.37437;0.75455;8.37437
0.0249;8.38166;0.76762;8.38166
0.0250;8.39108;0.77977;8.39108
0.0251;8.39682;0.78533;8.39682
0.0252;8.40424;0.79593;8.40424
0.0252;8.41050;0.80526;8.41050
0.0255;8.41604;0.82463;8.41604
0.0256;8.42262;0.83402;8.42262
0.0257;8.42978;0.83921;8.42978
0.0258;8.43835;0.84358;8.43835
0.0259;8.44337;0.84550;8.44337
0.0260;8.45031;0.84912;8.45031
0.0261;8.45971;0.85175;8.45971
0.0262;8.46851;0.85401;8.46851
0.0263;8.47453;0.85547;8.47453
0.0264;8.48242;0.85649;8.48242
0.0264;8.48490;0.85699;8.48490
0.0265;8.48747;0.85697;8.48747
0.0267;8.49366;0.85618;8.49366
0.0268;8.50242;0.85519;8.50242
0.0269;8.51003;0.85380;8.51003
0.0270;8.51645;0.85180;8.51645
0.0271;8.52369;0.84838;8.52369
0.0272;8.53261;0.84564;8.53261
0.0274;8.53929;0.84086;8.53929
0.0275;8.54520;0.83751;8.54520
0.0276;8.55207;0.82975;8.55207
0.0278;8.55774;0.82319;8.55774
0.0279;8.56407;0.81651;8.56407
0.0281;8.57122;0.80915;8.57122
0.0282;8.57757;0.80141;8.57757
0.0283;8.58330;0.79594;8.58330
0.0284;8.59053;0.79057;8.59053
0.0286;8.59783;0.78210;8.59783
0.0287;8.60349;0.77344;8.60349
0.0288;8.60985;0.76441;8.60985
0.0292;8.61412;0.74307;8.61412
0.0293;8.61938;0.73658;8.61938
0.0294;8.62550;0.72704;8.62550
0.0298;8.63148;0.70443;8.63148
0.0300;8.63771;0.68462;8.63771
0.0303;8.64699;0.66819;8.64699
0.0306;8.65127;0.64495;8.65127
0.0310;8.65400;0.62204;8.65400
0.0313;8.65464;0.59924;8.65464
0.0316;8.65651;0.57690;8.65651
0.0320;8.65709;0.55497;8.65709
0.0323;8.65800;0.53360;8.65800
0.0326;8.66044;0.51271;8.66044
0.0330;8.66169;0.49262;8.66169
0.0334;8.66422;0.47019;8.66422
0.0337;8.66679;0.44871;8.66679
0.0341;8.66786;0.42810;8.66786
0.0346;8.67172;0.40589;8.67172
0.0350;8.67560;0.38465;8.67560
0.0351;8.68086;0.37785;8.68086
0.0353;8.68769;0.36891;8.68769
0.0355;8.69485;0.36025;8.69485
0.0357;8.70094;0.35190;8.70094
0.0358;8.70818;0.34767;8.70818
0.0360;8.71644;0.34157;8.71644
0.0360;8.72285;0.33735;8.72285
0.0361;8.73038;0.33331;8.73038
0.0362;8.73728;0.32942;8.73728
0.0364;8.74446;0.32365;8.74446
0.0365;8.75141;0.31797;8.75141
0.0366;8.75726;0.31417;8.75726
0.0368;8.76236;0.30676;8.76236
0.0371;8.76896;0.29609;8.76896
0.0372;8.77668;0.29258;8.77668
0.0374;8.78179;0.28583;8.78179
0.0375;8.78721;0.28069;8.78721
0.0376;8.79455;0.27740;8.79455
0.0377;8.80128;0.27422;8.80128
0.0378;8.80799;0.27072;8.80799
0.0379;8.81367;0.26765;8.81367
0.0380;8.82109;0.26443;8.82109
0.0381;8.82856;0.26143;8.82856
0.0383;8.83613;0.25689;8.83613
0.0384;8.84287;0.25236;8.84287
0.0385;8.84814;0.24797;8.84814
0.0388;8.85460;0.24098;8.85460
0.0389;8.86167;0.23681;8.86167
0.0390;8.86746;0.23406;8.86746
0.0392;8.87516;0.22999;8.87516
0.0394;8.88322;0.22471;8.88322
0.0395;8.89110;0.22225;8.89110
0.0396;8.89659;0.21978;8.89659
0.0396;8.90283;0.21718;8.90283
0.0398;8.90955;0.21350;8.90955
0.0399;8.91468;0.21095;8.91468
0.0400;8.92076;0.20737;8.92076
0.0402;8.92632;0.20385;8.92632
0.0404;8.93190;0.19813;8.93190
0.0407;8.93851;0.19278;8.93851
0.0408;8.94399;0.19044;8.94399
0.0408;8.94957;0.18836;8.94957
0.0409;8.95835;0.18634;8.95835
0.0410;8.96423;0.18424;8.96423
0.0411;8.97214;0.18220;8.97214
0.0413;8.97892;0.17819;8.97892
0.0415;8.98490;0.17442;8.98490
0.0418;8.99175;0.16960;8.99175
0.0420;8.99843;0.16576;8.99843
0.0421;9.00352;0.16208;9.00352
0.0424;9.00944;0.15768;9.00944
0.0426;9.01479;0.15433;9.01479
0.0428;9.01998;0.15105;9.01998
0.0429;9.02631;0.14847;9.02631
0.0430;9.03175;0.14691;9.03175
0.0433;9.03722;0.14134;9.03722
0.0435;9.04348;0.13903;9.04348
0.0436;9.04990;0.13755;9.04990
0.0437;9.05512;0.13601;9.05512
0.0439;9.06026;0.13308;9.06026
0.0442;9.06531;0.12867;9.06531
0.0443;9.07116;0.12670;9.07116
0.0446;9.07666;0.12268;9.07666
0.0448;9.08317;0.11953;9.08317
0.0451;9.08832;0.11623;9.08832
0.0455;9.09353;0.11076;9.09353
0.0459;9.10078;0.10573;9.10078
0.0462;9.10721;0.10271;9.10721
0.0463;9.11417;0.10171;9.11417
0.0465;9.11990;0.09970;9.11990
0.0467;9.12614;0.09847;9.12614
0.0468;9.13139;0.09743;9.13139
0.0470;9.13653;0.09472;9.13653
0.0472;9.14339;0.09350;9.14339
0.0473;9.14929;0.09277;9.14929
0.0474;9.15659;0.09136;9.15659
0.0476;9.16425;0.08971;9.16425
0.0478;9.16948;0.08865;9.16948
0.0479;9.17536;0.08735;9.17536
0.0481;9.18057;0.08573;9.18057
0.0482;9.18567;0.08460;9.18567
0.0485;9.19143;0.08249;9.19143
0.0487;9.19769;0.08144;9.19769
0.0488;9.20310;0.08080;9.20310
0.0490;9.20846;0.07945;9.20846
0.0492;9.21367;0.07777;9.21367
0.0494;9.21967;0.07643;9.21967
0.0495;9.22637;0.07553;9.22637
0.0496;9.23276;0.07501;9.23276
0.0497;9.23784;0.07442;9.23784
0.0498;9.24313;0.07356;9.24313
0.0500;9.24946;0.07281;9.24946
0.0502;9.25489;0.07136;9.25489
0.0504;9.26064;0.07014;9.26064
0.0506;9.26681;0.06919;9.26681
0.0508;9.27331;0.06826;9.27331
0.0511;9.27948;0.06695;9.27948
0.0513;9.28616;0.06597;9.28616
0.0516;9.29321;0.06502;9.29321
0.0517;9.29859;0.06389;9.29859
0.0519;9.30409;0.06337;9.30409
0.0522;9.30996;0.06191;9.30996
0.0524;9.31693;0.06140;9.31693
0.0525;9.32252;0.06075;9.32252
0.0528;9.32816;0.05973;9.32816
0.0530;9.33377;0.05884;9.33377
0.0533;9.33915;0.05782;9.33915
0.0535;9.34512;0.05722;9.34512
0.0536;9.35039;0.05661;9.35039
0.0537;9.35572;0.05631;9.35572
0.0540;9.36261;0.05558;9.36261
0.0541;9.36800;0.05523;9.36800
0.0544;9.37434;0.05424;9.37434
0.0545;9.37972;0.05370;9.37972
0.0546;9.38500;0.05340;9.38500
0.0548;9.39124;0.05269;9.39124
0.0550;9.39739;0.05225;9.39739
0.0551;9.40242;0.05195;9.40242
0.0553;9.40871;0.05122;9.40871
0.0555;9.41386;0.05076;9.41386
0.0557;9.41978;0.05015;9.41978
0.0560;9.42547;0.04933;9.42547
0.0562;9.43082;0.04879;9.43082
0.0564;9.43642;0.04837;9.43642
0.0566;9.44149;0.04807;9.44149
0.0567;9.44702;0.04756;9.44702
0.0569;9.45385;0.04729;9.45385
0.0571;9.46078;0.04676;9.46078
0.0572;9.46716;0.04663;9.46716
0.0574;9.47254;0.04641;9.47254
0.0576;9.47926;0.04596;9.47926
0.0577;9.48472;0.04543;9.48472
0.0581;9.49077;0.04453;9.49077
0.0583;9.49639;0.04430;9.49639
0.0585;9.50199;0.04379;9.50199
0.0587;9.50839;0.04348;9.50839
0.0589;9.51412;0.04298;9.51412
0.0592;9.51963;0.04254;9.51963
0.0593;9.52535;0.04216;9.52535
0.0595;9.53165;0.04209;9.53165
0.0598;9.53727;0.04167;9.53727
0.0600;9.54233;0.04124;9.54233
0.0602;9.54827;0.04079;9.54827
0.0604;9.55413;0.04058;9.55413
0.0607;9.56026;0.03996;9.56026
0.0609;9.56530;0.03977;9.56530
0.0610;9.57183;0.03967;9.57183
0.0611;9.58011;0.03919;9.58011
0.0612;9.58543;0.03907;9.58543
0.0613;9.59077;0.03901;9.59077
0.0615;9.59650;0.03865;9.59650
0.0617;9.60217;0.03833;9.60217
0.0618;9.60745;0.03817;9.60745
0.0620;9.61255;0.03761;9.61255
0.0624;9.61824;0.03722;9.61824
0.0626;9.62370;0.03684;9.62370
0.0628;9.62879;0.03662;9.62879
0.0632;9.63405;0.03586;9.63405
0.0633;9.64220;0.03584;9.64220
0.0635;9.64910;0.03560;9.64910
0.0636;9.65542;0.03526;9.65542
0.0637;9.66113;0.03517;9.66113
0.0638;9.66668;0.03484;9.66668
0.0640;9.67260;0.03466;9.67260
0.0641;9.67833;0.03465;9.67833
0.0643;9.68346;0.03426;9.68346
0.0645;9.68890;0.03415;9.68890
0.0646;9.69601;0.03397;9.69601
0.0649;9.70150;0.03364;9.70150
0.0651;9.70758;0.03342;9.70758
0.0652;9.71341;0.03330;9.71341
0.0653;9.71909;0.03316;9.71909
0.0654;9.72563;0.03318;9.72563
0.0656;9.73174;0.03293;9.73174
0.0657;9.73895;0.03287;9.73895
0.0658;9.74592;0.03279;9.74592
0.0659;9.75288;0.03252;9.75288
0.0661;9.75878;0.03242;9.75878
0.0663;9.76578;0.03224;9.76578
0.0666;9.77397;0.03198;9.77397
0.0668;9.78081;0.03189;9.78081
0.0670;9.78620;0.03193;9.78620
0.0671;9.79195;0.03174;9.79195
0.0674;9.79931;0.03159;9.79931
0.0675;9.80452;0.03139;9.80452
0.0677;9.81026;0.03133;9.81026
0.0678;9.81679;0.03112;9.81679
0.0679;9.82200;0.03091;9.82200
0.0681;9.82988;0.03084;9.82988
0.0684;9.83588;0.03064;9.83588
0.0687;9.84247;0.03014;9.84247
0.0690;9.84776;0.02975;9.84776
0.0692;9.85347;0.02991;9.85347
0.0694;9.86069;0.02961;9.86069
0.0695;9.86710;0.02926;9.86710
0.0698;9.87319;0.02906;9.87319
0.0701;9.87944;0.02905;9.87944
0.0703;9.88597;0.02892;9.88597
0.0704;9.89114;0.02896;9.89114
0.0706;9.89676;0.02877;9.89676
0.0708;9.90612;0.02869;9.90612
0.0711;9.91300;0.02870;9.91300
0.0716;9.91822;0.02836;9.91822
0.0719;9.92364;0.02831;9.92364
0.0721;9.93162;0.02832;9.93162
0.0722;9.93724;0.02812;9.93724
0.0723;9.94272;0.02828;9.94272
0.0726;9.94920;0.02816;9.94920
0.0728;9.95449;0.02811;9.95449
0.0729;9.96036;0.02801;9.96036
0.0731;9.96598;0.02812;9.96598
0.0733;9.97227;0.02816;9.97227
0.0735;9.97756;0.02806;9.97756
0.0736;9.98405;0.02803;9.98405
0.0739;9.98991;0.02812;9.98991
0.0741;9.99519;0.02809;9.99519
0.0744;10.00086;0.02803;10.00086
0.0747;10.00682;0.02803;10.00682
0.0748;10.01198;0.02807;10.01198
0.0750;10.01847;0.02817;10.01847
0.0751;10.02353;0.02810;10.02353
0.0753;10.02861;0.02794;10.02861
0.0754;10.03451;0.02804;10.03451
0.0756;10.04064;0.02793;10.04064
0.0758;10.04731;0.02780;10.04731
0.0759;10.05409;0.02786;10.05409
0.0760;10.06007;0.02775;10.06007
0.0761;10.06515;0.02777;10.06515
0.0763;10.07063;0.02775;10.07063
0.0764;10.07645;0.02778;10.07645
0.0767;10.08385;0.02758;10.08385
0.0767;10.08978;0.02774;10.08978
0.0769;10.09600;0.02758;10.09600
0.0770;10.10129;0.02740;10.10129
0.0772;10.10748;0.02755;10.10748
0.0774;10.11379;0.02752;10.11379
0.0777;10.11891;0.02721;10.11891
0.0780;10.12455;0.02714;10.12455
0.0784;10.12972;0.02670;10.12972
0.0786;10.13570;0.02641;10.13570
0.0787;10.14338;0.02668;10.14338
0.0788;10.14996;0.02632;10.14996
0.0789;10.15699;0.02628;10.15699
0.0791;10.16292;0.02627;10.16292
0.0793;10.16878;0.02599;10.16878
0.0794;10.17403;0.02616;10.17403
0.0800;10.17986;0.02575;10.17986
0.0802;10.18600;0.02558;10.18600
0.0803;10.19211;0.02548;10.19211
0.0805;10.19741;0.02534;10.19741
0.0806;10.20276;0.02527;10.20276
0.0810;10.20860;0.02512;10.20860
0.0812;10.21440;0.02502;10.21440
0.0813;10.21980;0.02504;10.21980
0.0815;10.22486;0.02484;10.22486
0.0816;10.23058;0.02461;10.23058
0.0819;10.23801;0.02455;10.23801
0.0822;10.24459;0.02452;10.24459
0.0824;10.25068;0.02443;10.25068
0.0826;10.25598;0.02430;10.25598
0.0827;10.26156;0.02432;10.26156
0.0828;10.26818;0.02416;10.26818
0.0830;10.27569;0.02412;10.27569
0.0833;10.28092;0.02422;10.28092
0.0835;10.28689;0.02397;10.28689
0.0837;10.29212;0.02402;10.29212
0.0840;10.29734;0.02378;10.29734
0.0844;10.30401;0.02359;10.30401
0.0846;10.30965;0.02370;10.30965
0.0848;10.31495;0.02357;10.31495
0.0850;10.32115;0.02364;10.32115
0.0852;10.32762;0.02367;10.32762
0.0855;10.33308;0.02378;10.33308
0.0857;10.33826;0.02382;10.33826
0.0859;10.34474;0.02402;10.34474
0.0861;10.35012;0.02399;10.35012
0.0862;10.35706;0.02401;10.35706
0.0863;10.36283;0.02431;10.36283
0.0867;10.36842;0.02437;10.36842
0.0870;10.37576;0.02444;10.37576
0.0872;10.38204;0.02455;10.38204
0.0874;10.38730;0.02478;10.38730
0.0875;10.39271;0.02468;10.39271
0.0877;10.39816;0.02462;10.39816
0.0878;10.40443;0.02496;10.40443
0.0881;10.41044;0.02512;10.41044
0.0882;10.41680;0.02502;10.41680
0.0883;10.42194;0.02516;10.42194
0.0885;10.42734;0.02539;10.42734
0.0887;10.43351;0.02531;10.43351
0.0888;10.43861;0.02549;10.43861
0.0889;10.44475;0.02559;10.44475
0.0890;10.45156;0.02561;10.45156
0.0891;10.45877;0.02568;10.45877
0.0893;10.46423;0.02565;10.46423
0.0895;10.47100;0.02580;10.47100
0.0897;10.47805;0.02577;10.47805
0.0900;10.48335;0.02589;10.48335
0.0902;10.48891;0.02606;10.48891
0.0904;10.49497;0.02628;10.49497
0.0906;10.50063;0.02629;10.50063
0.0911;10.50758;0.02649;10.50758
0.0913;10.51469;0.02652;10.51469
0.0916;10.52057;0.02680;10.52057
0.0919;10.52770;0.02681;10.52770
0.0922;10.53352;0.02702;10.53352
0.0923;10.53919;0.02718;10.53919
0.0924;10.54491;0.02708;10.54491
0.0928;10.55096;0.02712;10.55096
0.0931;10.55736;0.02719;10.55736
0.0933;10.56438;0.02733;10.56438
0.0935;10.57184;0.02729;10.57184
0.0936;10.57731;0.02722;10.57731
0.0937;10.58304;0.02731;10.58304
0.0939;10.58872;0.02727;10.58872
0.0940;10.59486;0.02712;10.59486
0.0941;10.60047;0.02728;10.60047
0.0944;10.60684;0.02744;10.60684
0.0947;10.61240;0.02743;10.61240
0.0948;10.61758;0.02733;10.61758
0.0951;10.62366;0.02752;10.62366
0.0954;10.62946;0.02773;10.62946
0.0957;10.63528;0.02759;10.63528
0.0960;10.64070;0.02770;10.64070
0.0962;10.64611;0.02763;10.64611
0.0963;10.65143;0.02767;10.65143
0.0967;10.65665;0.02757;10.65665
0.0969;10.66305;0.02748;10.66305
0.0971;10.66939;0.02749;10.66939
0.0972;10.67558;0.02754;10.67558
0.0973;10.68337;0.02756;10.68337
0.0974;10.68874;0.02756;10.68874
0.0976;10.69423;0.02745;10.69423
0.0979;10.70044;0.02733;10.70044
0.0981;10.70544;0.02730;10.70544
0.0983;10.71113;0.02734;10.71113
0.0985;10.71698;0.02728;10.71698
0.0987;10.72255;0.02738;10.72255
0.0988;10.72766;0.02740;10.72766
0.0990;10.73408;0.02727;10.73408
0.0993;10.73992;0.02736;10.73992
0.0994;10.74635;0.02752;10.74635
0.0997;10.75139;0.02735;10.75139
0.0999;10.76117;0.02746;10.76117
0.1001;10.76710;0.02741;10.76710
0.1003;10.77321;0.02738;10.77321
0.1005;10.77872;0.02733;10.77872
0.1007;10.78431;0.02719;10.78431
0.1008;10.78976;0.02743;10.78976
0.1010;10.79574;0.02728;10.79574
0.1013;10.80208;0.02737;10.80208
0.1015;10.80756;0.02717;10.80756
0.1019;10.81280;0.02719;10.81280
0.1021;10.81915;0.02716;10.81915
0.1022;10.82430;0.02724;10.82430
0.1026;10.82936;0.02724;10.82936
0.1029;10.83463;0.02707;10.83463
0.1031;10.83989;0.02695;10.83989
0.1032;10.83375;0.02693;10.83375
0.1033;10.84154;0.02706;10.84154
0.1034;10.84871;0.02703;10.84871
0.1037;10.85481;0.02710;10.85481
0.1039;10.86038;0.02700;10.86038
0.1040;10.86600;0.02691;10.86600
0.1041;10.87124;0.02674;10.87124
0.1044;10.87678;0.02687;10.87678
0.1045;10.88369;0.02679;10.88369
0.1047;10.88956;0.02660;10.88956
0.1050;10.89506;0.02663;10.89506
0.1054;10.90058;0.02627;10.90058
0.1058;10.90578;0.02635;10.90578
0.1061;10.91118;0.02626;10.91118
0.1063;10.91869;0.02611;10.91869
0.1065;10.92636;0.02613;10.92636
0.1067;10.93144;0.02607;10.93144
0.1069;10.93669;0.02596;10.93669
0.1073;10.94260;0.02576;10.94260
0.1076;10.94843;0.02567;10.94843
0.1079;10.95479;0.02554;10.95479
0.1080;10.96137;0.02555;10.96137
0.1083;10.96685;0.02555;10.96685
0.1086;10.97323;0.02531;10.97323
0.1087;10.98003;0.02544;10.98003
0.1091;10.98604;0.02505;10.98604
0.1092;10.99480;0.02518;10.99480
0.1094;11.00045;0.02489;11.00045
0.1096;11.00688;0.02488;11.00688
0.1098;11.01313;0.02471;11.01313
0.1100;11.01832;0.02449;11.01832
0.1104;11.02456;0.02442;11.02456
0.1108;11.03080;0.02428;11.03080
0.1113;11.03626;0.02440;11.03626
0.1117;11.04187;0.02451;11.04187
0.1119;11.04755;0.02474;11.04755
0.1122;11.05435;0.02467;11.05435
0.1126;11.05973;0.02485;11.05973
0.1129;11.06537;0.02499;11.06537
0.1133;11.07048;0.02516;11.07048
0.1135;11.07689;0.02520;11.07689
0.1137;11.08236;0.02514;11.08236
0.1139;11.08835;0.02516;11.08835
0.1141;11.09357;0.02527;11.09357
0.1145;11.09951;0.02545;11.09951
0.1146;11.10627;0.02563;11.10627
0.1148;11.11391;0.02554;11.11391
0.1150;11.12054;0.02556;11.12054
0.1152;11.12569;0.02554;11.12569
0.1154;11.13208;0.02556;11.13208
0.1156;11.13928;0.02568;11.13928
0.1160;11.14519;0.02581;11.14519
0.1165;11.15148;0.02580;11.15148
0.1169;11.15650;0.02578;11.15650
0.1176;11.16203;0.02546;11.16203
0.1181;11.16724;0.02526;11.16724
0.1184;11.17367;0.02509;11.17367
0.1185;11.17878;0.02492;11.17878
0.1187;11.18391;0.02495;11.18391
0.1190;11.18929;0.02480;11.18929
0.1191;11.19591;0.02468;11.19591
0.1193;11.20103;0.02468;11.20103
0.1195;11.20733;0.02454;11.20733
0.1198;11.21350;0.02428;11.21350
0.1201;11.21868;0.02419;11.21868
0.1206;11.22456;0.02377;11.22456
0.1208;11.23019;0.02355;11.23019
0.1211;11.23527;0.02337;11.23527
0.1213;11.24150;0.02336;11.24150
0.1215;11.24746;0.02296;11.24746
0.1218;11.25268;0.02290;11.25268
0.1220;11.25904;0.02280;11.25904
0.1222;11.26468;0.02267;11.26468
0.1226;11.27124;0.02258;11.27124
0.1228;11.27674;0.02254;11.27674
0.1230;11.28371;0.02250;11.28371
0.1233;11.29011;0.02226;11.29011
0.1239;11.29613;0.02227;11.29613
0.1243;11.30137;0.02221;11.30137
0.1246;11.30719;0.02190;11.30719
0.1250;11.31241;0.02186;11.31241
0.1252;11.31906;0.02188;11.31906
0.1253;11.32038;0.02178;11.32038
0.1256;11.32446;0.02190;11.32446
0.1258;11.33017;0.02188;11.33017
0.1260;11.33518;0.02202;11.33518
0.1262;11.34060;0.02197;11.34060
0.1263;11.34584;0.02204;11.34584
0.1265;11.35094;0.02195;11.35094
0.1269;11.35617;0.02220;11.35617
0.1272;11.36151;0.02231;11.36151
0.1274;11.36699;0.02226;11.36699
0.1276;11.37250;0.02241;11.37250
0.1278;11.37820;0.02247;11.37820
0.1281;11.38427;0.02261;11.38427
0.1283;11.39057;0.02249;11.39057
0.1284;11.39591;0.02246;11.39591
0.1286;11.40197;0.02246;11.40197
0.1289;11.40718;0.02261;11.40718
0.1294;11.41219;0.02280;11.41219
0.1298;11.41800;0.02312;11.41800
0.1300;11.42469;0.02318;11.42469
0.1302;11.43069;0.02333;11.43069
0.1303;11.43657;0.02332;11.43657
0.1304;11.44269;0.02344;11.44269
0.1305;11.45006;0.02349;11.45006
0.1306;11.45634;0.02334;11.45634
0.1307;11.46282;0.02358;11.46282
0.1308;11.46863;0.02367;11.46863
0.1311;11.47440;0.02371;11.47440
0.1317;11.47961;0.02395;11.47961
0.1321;11.48476;0.02405;11.48476
0.1327;11.49134;0.02433;11.49134
0.1331;11.49638;0.02469;11.49638
0.1333;11.50169;0.02478;11.50169
0.1339;11.50692;0.02498;11.50692
0.1341;11.51469;0.02504;11.51469
0.1343;11.52067;0.02514;11.52067
0.1344;11.52734;0.02508;11.52734
0.1347;11.53376;0.02521;11.53376
0.1349;11.54035;0.02528;11.54035
0.1352;11.54613;0.02533;11.54613
0.1356;11.55244;0.02535;11.55244
0.1358;11.55797;0.02539;11.55797
0.1361;11.56597;0.02541;11.56597
0.1363;11.57316;0.02536;11.57316
0.1365;11.57924;0.02547;11.57924
0.1369;11.58546;0.02553;11.58546
0.1374;11.59071;0.02578;11.59071
0.1377;11.59600;0.02578;11.59600
0.1381;11.60259;0.02583;11.60259
0.1384;11.60952;0.02582;11.60952
0.1387;11.61456;0.02597;11.61456
0.1391;11.61999;0.02607;11.61999
0.1393;11.62580;0.02602;11.62580
0.1395;11.63127;0.02613;11.63127
0.1397;11.63728;0.02620;11.63728
0.1400;11.64307;0.02603;11.64307
0.1404;11.64860;0.02611;11.64860
0.1409;11.65372;0.02612;11.65372
0.1413;11.65877;0.02596;11.65877
0.1415;11.66392;0.02579;11.66392
0.1419;11.66914;0.02555;11.66914
0.1424;11.67472;0.02556;11.67472
0.1429;11.68189;0.02522;11.68189
0.1430;11.68859;0.02535;11.68859
0.1433;11.69530;0.02515;11.69530
0.1434;11.70097;0.02517;11.70097
0.1436;11.70651;0.02513;11.70651
0.1439;11.71280;0.02484;11.71280
0.1440;11.71889;0.02493;11.71889
0.1443;11.72502;0.02465;11.72502
0.1445;11.73071;0.02458;11.73071
0.1448;11.73665;0.02457;11.73665
0.1450;11.74245;0.02447;11.74245
0.1454;11.74777;0.02440;11.74777
0.1458;11.75390;0.02424;11.75390
0.1461;11.76118;0.02426;11.76118
0.1465;11.76688;0.02398;11.76688
0.1469;11.77220;0.02376;11.77220
0.1473;11.77826;0.02362;11.77826
0.1474;11.78351;0.02350;11.78351
0.1476;11.79078;0.02356;11.79078
0.1478;11.79697;0.02338;11.79697
0.1484;11.80314;0.02320;11.80314
0.1487;11.80846;0.02325;11.80846
0.1490;11.81364;0.02331;11.81364
0.1494;11.81903;0.02335;11.81903
0.1499;11.82457;0.02328;11.82457
0.1501;11.82977;0.02322;11.82977
0.1504;11.83549;0.02327;11.83549
0.1507;11.84056;0.02305;11.84056
0.1511;11.84808;0.02312;11.84808
0.1513;11.85430;0.02311;11.85430
0.1518;11.85984;0.02316;11.85984
0.1523;11.86496;0.02320;11.86496
0.1530;11.87082;0.02340;11.87082
0.1532;11.87583;0.02362;11.87583
0.1535;11.88084;0.02364;11.88084
0.1539;11.88704;0.02379;11.88704
0.1541;11.89292;0.02370;11.89292
0.1542;11.89853;0.02385;11.89853
0.1544;11.90405;0.02378;11.90405
0.1546;11.90970;0.02375;11.90970
0.1550;11.91552;0.02403;11.91552
0.1552;11.92209;0.02398;11.92209
0.1554;11.92735;0.02398;11.92735
0.1557;11.93278;0.02429;11.93278
0.1565;11.93815;0.02474;11.93815
0.1569;11.94402;0.02475;11.94402
0.1574;11.94907;0.02486;11.94907
0.1577;11.95452;0.02472;11.95452
0.1581;11.95956;0.02470;11.95956
0.1587;11.96523;0.02427;11.96523
0.1589;11.97069;0.02404;11.97069
0.1592;11.97659;0.02401;11.97659
0.1595;11.98209;0.02369;11.98209
0.1599;11.98740;0.02327;11.98740
0.1606;11.99407;0.02303;11.99407
0.1608;12.00003;0.02285;12.00003
