Part protocol
Network name;Part_Maxymos_2_MP-001_2017-03-14_14-18-04_RMS_bl_trans150obr_tepy_000017_OK.csv
Protocol version;3.01.00






Result information
Date;2017/03/14
Time;14:18:04
Cycle number;17
Total result;OK
Triggered switch signals
Part serial number;RMS_bl_trans150obr_tepy_000017
Measuring program name;Bl_trans
Measuring program number;1
Zero X offset;0.000;mm
Tara Y offset;0.0000;RMS









Process values - curve related
Block X;12.000;mm;XMIN-X;7.669;mm
Block Y;0.0302;RMS;XMIN-Y;0.0344;RMS
Ref X;-;mm;XMAX-X;12.000;mm
Peak-peak X;4.331;mm;XMAX-Y;0.0302;RMS
Peak-peak Y;0.7384;RMS;YMIN-X;11.862;mm
;;;YMIN-Y;0.0270;RMS
;;;YMAX-X;8.505;mm
;;;YMAX-Y;0.7653;RMS

Process values - EO related;Result;Entry;Exit;XMIN-X;XMIN-Y;XMAX-X;XMAX-Y;YMIN-Y;YMIN-X;YMAX-Y;YMAX-X;Calculated result;NOK cause;Violation X;Violation Y;Ref X;Ref Y;Switch force;Y-Diff;X-Diff;Force deviation ratio;Click ratio;Contact edge
;;;;mm;RMS;mm;RMS;RMS;mm;RMS;mm;-;-;-;-;-;-;-;-;-;-;-;-;
EO-01;OK;8.226;;;;;;;;;;;;;;;;
EO-02;OK;;;;;;;;;;;0.2789;;;;;;
EO-03;OK;;;;;;;;;;;0.7384;;;;;;
EO-04;None;
EO-05;None;
EO-06;None;
EO-07;None;
EO-08;None;
EO-09;None;
EO-10;None;


















Evaluation objects settings;Reaction;X reference;Y-Reference;XMin;XMax;YMin;YMax;Entry;Exit;Curve part;Catch zone X;Catch zone Y;EO Name;EO description;Re-entry ignored;Generate statistics;X-Hysteresis;Y-Hysteresis;Down sampling rate;Calc limit min;Calc limit max;Grad limit min;Grad limit max;Hyst limit min;Hyst limit max;Speed limit min;Speed limit max;Time limit min;Time limit max;Is curve inside box;GetRef type;CalcInput1 | dx;CalcInput2 | dx;Calc operation;Average limit min;Average limit max;Break max bending;Visualization offset X;Visualization offset Y;-;-;-
EO-01;LINE-X;ABSOLUTE;ABSOLUTE;8.037;8.473;0.1000;;BELOW;NONE;ANY;+50%;+0%;;;FALSE;TRUE;0.0;0.0;1;;;;;;;;;;;;;;;;;;;0.000;0.0000;;;
EO-02;CALC;ABSOLUTE;ABSOLUTE;-0.409;;1.5166;;NONE;NONE;ANY;+0%;+0%;;;FALSE;TRUE;0.0;0.0;1;0.000000;0.500000;;;;;;;;;;;PV_TABLE_CURVE | YMAX-X;EO-01 | ENTRY;Subtraction;;;;0.000;0.0000;;;
EO-03;CALC;ABSOLUTE;ABSOLUTE;10.518;;1.3638;;NONE;NONE;ANY;+0%;+0%;;;FALSE;TRUE;0.0;0.0;1;0.000000;1.000000;;;;;;;;;;;PV_TABLE_CURVE | YMAX-Y;PV_TABLE_CURVE | YMIN-Y;Subtraction;;;;0.000;0.0000;;;
EO-04;OFF
EO-05;OFF
EO-06;OFF
EO-07;OFF
EO-08;OFF
EO-09;OFF
EO-10;OFF



















Switch signal settings;Channel;Threshold at;;Trigger from;Reference;Latch until
Type S1;X;10.370;mm;LEFT;ABSOLUTE;None
Type S2;OFF

















Device information
Device type;maXYmos TL
Device type number;5877A0
Device serial number;4915792
Firmware version;1.1.12 (r21150-TL_v1.1.x)
-
-
-
-
-
IP Address;192.168.21.20
Network name;Maxymos 2
Profibus address;10
-
-
-
Station name;Maxymos 2
Company name;
Comment;











Channel-X settings
Use the settings from global setup;True
Sensor-X type;Potentiometer
Unit;mm
Used range from;8.000;mm
Used range to;12.000;mm
Decimal places;XXX.XXX
Scaling by;Teach-In
Point 1;-0.380;mm;16.488;%
Point 2;72.105;mm;72.105;%
Invert signal;FALSE
Filter;OFF
Test point;0.000;mm
Tolerance;0.010;mm
Enable sensor test by dig-input;FALSE
Zoom from;0.000;mm
Zoom to;100.000;mm
Master Measurement Enable;FALSE
Master Measurement Nominal Position;0.000;mm
Encoder interpolation factor;-
Encoder electrical interface;-
Encoder referencing type;-
Encoder referencing edge;-
Encoder pulses per minute;-
Encoder use every nth-mark;-
Reference;-
Encoder reference points;-
Encoder coding;-
Encoder width;-
Encoder optimization;-
Encoder clock frequency;-
Termination resistor;-








Channel-Y settings
Use the settings from global setup;True
Sensor-Y type;Â±10V
Unit;RMS
Used range from;0.0000;RMS
Used range to;10.0000;RMS
Decimal places;XX.XXXX
Scaling by;Calibration Sheet
Sensitivity;1000.0000;RMS;-4.000;mV/V
Zero point;0.0000;RMS;0.000;mV/V
Invert signal;FALSE
Filter;OFF
Piezo reset;-
Test point;0.0000;RMS
Tolerance;0.0000;RMS
Enable sensor test by dig-input;FALSE
Zoom from;0.0000;RMS
Zoom to;1000.0000;RMS












Cycle control settings
Use the settings from global setup;True
Measuring function;Y (X)
Delta-X;User-Defined;0.00500;mm
START condition;Threshold-X;7.500;mm;Trigger from;LEFT
STOP condition;Threshold-X;12.000;mm;Trigger from;LEFT
Cycle time out;2.00;s
Turning point RIGHT;YMAX
Turning point LEFT;NONE
Cut curve at;NONE










Evaluation settings
Capture only first NOK-EO for statistics;False
Hysteresis X;0.0;%
Hysteresis Y;0.0;%






Trigger Y settings
Threshold at;1.2839;RMS
Value X at TRIGGER Y;0.000;mm
Approach from;BELOW






Block settings
Value X at block;XMAX
Block at;0.000;mm







Measuring curve
Number of measuring points;678
Ref. Graph on;ABSOLUTE
Curve segments;0;132;131;678;


Time;X(ABSOLUTE);Y;X (ABSOLUTE)


s;mm;RMS;mm
0.0000;7.66933;0.03444;7.66933
0.0003;7.68068;0.03454;7.68068
0.0005;7.68736;0.03451;7.68736
0.0008;7.69318;0.03461;7.69318
0.0009;7.69860;0.03446;7.69860
0.0010;7.70403;0.03436;7.70403
0.0012;7.71329;0.03469;7.71329
0.0012;7.71895;0.03467;7.71895
0.0014;7.72462;0.03483;7.72462
0.0016;7.73280;0.03499;7.73280
0.0019;7.73785;0.03544;7.73785
0.0023;7.74648;0.03613;7.74648
0.0024;7.75159;0.03610;7.75159
0.0025;7.75931;0.03660;7.75931
0.0029;7.76614;0.03705;7.76614
0.0030;7.77227;0.03715;7.77227
0.0035;7.77900;0.03756;7.77900
0.0036;7.78802;0.03755;7.78802
0.0038;7.79405;0.03742;7.79405
0.0042;7.80000;0.03798;7.80000
0.0045;7.80719;0.04193;7.80719
0.0047;7.81239;0.04645;7.81239
0.0052;7.81861;0.05774;7.81861
0.0059;7.82519;0.06875;7.82519
0.0065;7.83086;0.07426;7.83086
0.0068;7.83703;0.07540;7.83703
0.0076;7.84227;0.07694;7.84227
0.0079;7.84789;0.07662;7.84789
0.0085;7.85319;0.07508;7.85319
0.0086;7.85850;0.07497;7.85850
0.0092;7.86471;0.07273;7.86471
0.0095;7.87113;0.07170;7.87113
0.0096;7.87733;0.07132;7.87733
0.0099;7.88396;0.06976;7.88396
0.0102;7.89094;0.06854;7.89094
0.0106;7.89892;0.06643;7.89892
0.0109;7.90398;0.06527;7.90398
0.0113;7.90952;0.06361;7.90952
0.0115;7.91683;0.06233;7.91683
0.0116;7.92245;0.06191;7.92245
0.0118;7.92872;0.06125;7.92872
0.0119;7.93473;0.06055;7.93473
0.0121;7.94244;0.05946;7.94244
0.0122;7.94816;0.05915;7.94816
0.0125;7.95383;0.05779;7.95383
0.0128;7.96073;0.05688;7.96073
0.0130;7.97035;0.05595;7.97035
0.0132;7.97586;0.05501;7.97586
0.0135;7.98192;0.05406;7.98192
0.0137;7.98861;0.05366;7.98861
0.0137;7.99492;0.05345;7.99492
0.0144;8.00085;0.05120;8.00085
0.0144;8.00678;0.05102;8.00678
0.0145;8.01390;0.05067;8.01390
0.0148;8.02426;0.04981;8.02426
0.0149;8.03002;0.04949;8.03002
0.0151;8.03546;0.04909;8.03546
0.0156;8.04165;0.04789;8.04165
0.0156;8.04669;0.04770;8.04669
0.0158;8.05389;0.04721;8.05389
0.0160;8.06104;0.04699;8.06104
0.0160;8.05581;0.04692;8.05581
0.0164;8.06420;0.04630;8.06420
0.0168;8.07051;0.04554;8.07051
0.0169;8.07625;0.04569;8.07625
0.0172;8.08332;0.04539;8.08332
0.0173;8.08869;0.04517;8.08869
0.0176;8.09414;0.04475;8.09414
0.0177;8.09968;0.04459;8.09968
0.0180;8.10634;0.04424;8.10634
0.0183;8.11292;0.04387;8.11292
0.0185;8.11952;0.04368;8.11952
0.0186;8.12655;0.04361;8.12655
0.0190;8.13332;0.04316;8.13332
0.0192;8.14172;0.04297;8.14172
0.0193;8.14783;0.04280;8.14783
0.0195;8.15620;0.04266;8.15620
0.0196;8.16718;0.04261;8.16718
0.0197;8.17340;0.04255;8.17340
0.0199;8.18217;0.04231;8.18217
0.0200;8.18770;0.04197;8.18770
0.0201;8.19334;0.04206;8.19334
0.0203;8.20114;0.04190;8.20114
0.0204;8.20693;0.04177;8.20693
0.0205;8.21925;0.04168;8.21925
0.0208;8.22015;0.06643;8.22015
0.0209;8.22538;0.08704;8.22538
0.0210;8.22597;0.10844;8.22597
0.0211;8.22687;0.13006;8.22687
0.0212;8.23463;0.15168;8.23463
0.0213;8.23822;0.17242;8.23822
0.0214;8.24463;0.19211;8.24463
0.0216;8.25384;0.22041;8.25384
0.0216;8.25943;0.22945;8.25943
0.0217;8.26716;0.24678;8.26716
0.0218;8.27493;0.26408;8.27493
0.0219;8.28443;0.28430;8.28443
0.0220;8.28599;0.31147;8.28599
0.0221;8.29381;0.34133;8.29381
0.0222;8.29854;0.37114;8.29854
0.0222;8.30359;0.38601;8.30359
0.0223;8.30974;0.40069;8.30974
0.0223;8.31481;0.41499;8.31481
0.0224;8.32154;0.44287;8.32154
0.0225;8.33179;0.46947;8.33179
0.0226;8.33793;0.48209;8.33793
0.0227;8.34143;0.50649;8.34143
0.0228;8.34731;0.52946;8.34731
0.0228;8.34692;0.55139;8.34692
0.0229;8.35534;0.57204;8.35534
0.0230;8.36160;0.59133;8.36160
0.0231;8.36913;0.60918;8.36913
0.0232;8.37457;0.62613;8.37457
0.0233;8.38272;0.64146;8.38272
0.0234;8.39318;0.65575;8.39318
0.0235;8.39864;0.66263;8.39864
0.0236;8.40621;0.67524;8.40621
0.0237;8.41228;0.68682;8.41228
0.0239;8.41288;0.70699;8.41288
0.0240;8.41886;0.71601;8.41886
0.0241;8.42616;0.72753;8.42616
0.0242;8.43589;0.73415;8.43589
0.0242;8.44234;0.73732;8.44234
0.0243;8.44958;0.74287;8.44958
0.0244;8.45660;0.74772;8.45660
0.0245;8.46237;0.75181;8.46237
0.0246;8.47180;0.75556;8.47180
0.0248;8.47739;0.75975;8.47739
0.0249;8.48529;0.76197;8.48529
0.0250;8.49083;0.76367;8.49083
0.0252;8.49824;0.76532;8.49824
0.0252;8.50465;0.76534;8.50465
0.0253;8.51026;0.76531;8.51026
0.0255;8.52040;0.76399;8.52040
0.0256;8.52695;0.76288;8.52695
0.0258;8.53341;0.75945;8.53341
0.0259;8.54251;0.75614;8.54251
0.0261;8.54953;0.75065;8.54953
0.0262;8.55583;0.74912;8.55583
0.0263;8.56236;0.74571;8.56236
0.0265;8.56896;0.73464;8.56896
0.0266;8.57574;0.73263;8.57574
0.0268;8.58359;0.72194;8.58359
0.0269;8.58921;0.71968;8.58921
0.0271;8.59465;0.71020;8.59465
0.0272;8.59988;0.70290;8.59988
0.0273;8.60721;0.70020;8.60721
0.0275;8.61556;0.68727;8.61556
0.0279;8.62016;0.66533;8.62016
0.0279;8.62647;0.66266;8.62647
0.0283;8.62971;0.64265;8.62971
0.0286;8.63428;0.62226;8.63428
0.0289;8.63721;0.60173;8.63721
0.0293;8.64243;0.58114;8.64243
0.0295;8.64800;0.56649;8.64800
0.0299;8.64690;0.54614;8.64690
0.0302;8.65496;0.52601;8.65496
0.0306;8.65780;0.50344;8.65780
0.0310;8.65827;0.48175;8.65827
0.0313;8.66146;0.46073;8.66146
0.0315;8.66738;0.45276;8.66738
0.0318;8.67265;0.43765;8.67265
0.0322;8.67391;0.41568;8.67391
0.0323;8.67891;0.41088;8.67891
0.0327;8.67803;0.39014;8.67803
0.0329;8.68613;0.38100;8.68613
0.0333;8.69209;0.36594;8.69209
0.0336;8.69795;0.34920;8.69795
0.0339;8.70436;0.33908;8.70436
0.0339;8.71125;0.33708;8.71125
0.0342;8.71795;0.32743;8.71795
0.0342;8.72295;0.32561;8.72295
0.0343;8.72906;0.32373;8.72906
0.0345;8.73776;0.31438;8.73776
0.0348;8.74363;0.30364;8.74363
0.0349;8.75125;0.30005;8.75125
0.0350;8.75693;0.29674;8.75693
0.0351;8.76263;0.29166;8.76263
0.0352;8.76777;0.29010;8.76777
0.0356;8.77525;0.27705;8.77525
0.0357;8.78146;0.27241;8.78146
0.0359;8.78755;0.26784;8.78755
0.0360;8.79259;0.26341;8.79259
0.0361;8.79804;0.25907;8.79804
0.0362;8.80596;0.25621;8.80596
0.0364;8.81161;0.25051;8.81161
0.0365;8.81889;0.24765;8.81889
0.0366;8.82393;0.24521;8.82393
0.0368;8.82967;0.24109;8.82967
0.0369;8.83653;0.23835;8.83653
0.0370;8.84395;0.23584;8.84395
0.0372;8.84965;0.22950;8.84965
0.0374;8.85483;0.22445;8.85483
0.0375;8.85990;0.22078;8.85990
0.0376;8.86498;0.21854;8.86498
0.0378;8.87045;0.21389;8.87045
0.0379;8.87856;0.21174;8.87856
0.0381;8.88674;0.20828;8.88674
0.0382;8.89344;0.20497;8.89344
0.0383;8.90156;0.20285;8.90156
0.0384;8.90784;0.19970;8.90784
0.0385;8.91316;0.19744;8.91316
0.0387;8.91866;0.19338;8.91866
0.0389;8.92692;0.18945;8.92692
0.0392;8.93359;0.18361;8.93359
0.0394;8.94090;0.17976;8.94090
0.0395;8.94834;0.17819;8.94834
0.0396;8.96036;0.17623;8.96036
0.0397;8.96646;0.17341;8.96646
0.0398;8.97307;0.17168;8.97307
0.0399;8.97904;0.16996;8.97904
0.0401;8.98593;0.16638;8.98593
0.0403;8.99398;0.16385;8.99398
0.0406;9.00149;0.15819;9.00149
0.0408;9.01272;0.15482;9.01272
0.0409;9.02048;0.15262;9.02048
0.0414;9.02774;0.14533;9.02774
0.0415;9.03636;0.14392;9.03636
0.0419;9.04238;0.13916;9.04238
0.0420;9.04888;0.13709;9.04888
0.0421;9.05399;0.13586;9.05399
0.0422;9.06291;0.13442;9.06291
0.0425;9.06823;0.13059;9.06823
0.0427;9.07417;0.12810;9.07417
0.0429;9.08036;0.12584;9.08036
0.0431;9.08615;0.12278;9.08615
0.0433;9.09146;0.12010;9.09146
0.0437;9.09721;0.11616;9.09721
0.0438;9.10253;0.11456;9.10253
0.0440;9.10788;0.11294;9.10788
0.0442;9.11608;0.11049;9.11608
0.0446;9.12170;0.10633;9.12170
0.0448;9.12754;0.10429;9.12754
0.0448;9.13268;0.10368;9.13268
0.0449;9.13885;0.10315;9.13885
0.0453;9.14671;0.09952;9.14671
0.0455;9.15734;0.09715;9.15734
0.0456;9.16384;0.09669;9.16384
0.0459;9.16978;0.09347;9.16978
0.0460;9.17520;0.09269;9.17520
0.0461;9.18036;0.09145;9.18036
0.0462;9.18689;0.09106;9.18689
0.0462;9.19265;0.09064;9.19265
0.0467;9.19787;0.08721;9.19787
0.0468;9.20701;0.08565;9.20701
0.0471;9.21255;0.08395;9.21255
0.0472;9.21834;0.08316;9.21834
0.0475;9.21204;0.08128;9.21204
0.0476;9.22523;0.08064;9.22523
0.0476;9.23344;0.08031;9.23344
0.0478;9.23900;0.07926;9.23900
0.0479;9.24601;0.07860;9.24601
0.0480;9.25467;0.07801;9.25467
0.0483;9.26243;0.07578;9.26243
0.0486;9.26890;0.07389;9.26890
0.0488;9.27413;0.07267;9.27413
0.0489;9.28069;0.07207;9.28069
0.0492;9.28932;0.07059;9.28932
0.0496;9.29665;0.06832;9.29665
0.0498;9.30219;0.06721;9.30219
0.0502;9.30796;0.06512;9.30796
0.0503;9.31312;0.06472;9.31312
0.0505;9.32017;0.06387;9.32017
0.0508;9.32545;0.06226;9.32545
0.0509;9.33250;0.06190;9.33250
0.0512;9.33794;0.06066;9.33794
0.0516;9.34396;0.05908;9.34396
0.0518;9.35014;0.05810;9.35014
0.0520;9.35684;0.05731;9.35684
0.0522;9.36487;0.05609;9.36487
0.0524;9.36990;0.05561;9.36990
0.0525;9.37617;0.05531;9.37617
0.0527;9.38150;0.05463;9.38150
0.0529;9.38815;0.05399;9.38815
0.0531;9.39393;0.05328;9.39393
0.0533;9.39896;0.05291;9.39896
0.0534;9.40849;0.05252;9.40849
0.0536;9.42017;0.05207;9.42017
0.0539;9.43105;0.05126;9.43105
0.0542;9.43818;0.05039;9.43818
0.0542;9.44373;0.05030;9.44373
0.0548;9.45144;0.04904;9.45144
0.0549;9.45732;0.04885;9.45732
0.0549;9.46378;0.04874;9.46378
0.0552;9.47043;0.04800;9.47043
0.0554;9.47713;0.04740;9.47713
0.0555;9.48354;0.04730;9.48354
0.0556;9.48913;0.04713;9.48913
0.0559;9.49424;0.04630;9.49424
0.0561;9.50035;0.04608;9.50035
0.0564;9.50547;0.04541;9.50547
0.0566;9.51075;0.04531;9.51075
0.0568;9.51686;0.04496;9.51686
0.0571;9.52192;0.04455;9.52192
0.0573;9.52750;0.04460;9.52750
0.0575;9.53654;0.04431;9.53654
0.0579;9.54236;0.04382;9.54236
0.0582;9.54765;0.04359;9.54765
0.0585;9.55362;0.04341;9.55362
0.0587;9.55952;0.04330;9.55952
0.0588;9.56521;0.04322;9.56521
0.0589;9.57120;0.04290;9.57120
0.0591;9.57672;0.04275;9.57672
0.0592;9.58484;0.04271;9.58484
0.0595;9.59309;0.04270;9.59309
0.0596;9.59942;0.04256;9.59942
0.0599;9.60803;0.04223;9.60803
0.0602;9.61546;0.04214;9.61546
0.0606;9.62138;0.04198;9.62138
0.0609;9.62720;0.04165;9.62720
0.0612;9.63348;0.04129;9.63348
0.0616;9.63955;0.04112;9.63955
0.0618;9.64538;0.04076;9.64538
0.0619;9.65161;0.04058;9.65161
0.0622;9.65927;0.04012;9.65927
0.0624;9.66516;0.03984;9.66516
0.0625;9.67086;0.03940;9.67086
0.0626;9.67765;0.03944;9.67765
0.0629;9.68331;0.03910;9.68331
0.0631;9.69120;0.03867;9.69120
0.0633;9.69730;0.03823;9.69730
0.0636;9.70240;0.03813;9.70240
0.0637;9.70831;0.03778;9.70831
0.0639;9.71484;0.03768;9.71484
0.0640;9.72157;0.03746;9.72157
0.0641;9.72902;0.03719;9.72902
0.0642;9.73721;0.03728;9.73721
0.0643;9.74493;0.03718;9.74493
0.0645;9.75097;0.03696;9.75097
0.0646;9.75733;0.03678;9.75733
0.0648;9.76352;0.03652;9.76352
0.0650;9.76939;0.03641;9.76939
0.0651;9.77847;0.03614;9.77847
0.0652;9.78565;0.03607;9.78565
0.0655;9.79171;0.03590;9.79171
0.0658;9.79753;0.03571;9.79753
0.0659;9.80754;0.03557;9.80754
0.0661;9.81394;0.03533;9.81394
0.0662;9.82231;0.03529;9.82231
0.0663;9.82941;0.03528;9.82941
0.0665;9.83687;0.03527;9.83687
0.0666;9.84216;0.03505;9.84216
0.0667;9.84760;0.03507;9.84760
0.0668;9.84229;0.03507;9.84229
0.0671;9.84833;0.03472;9.84833
0.0672;9.85586;0.03463;9.85586
0.0673;9.86533;0.03474;9.86533
0.0678;9.87299;0.03441;9.87299
0.0680;9.88159;0.03410;9.88159
0.0683;9.88902;0.03418;9.88902
0.0685;9.89763;0.03392;9.89763
0.0687;9.90303;0.03391;9.90303
0.0689;9.90900;0.03376;9.90900
0.0692;9.91840;0.03355;9.91840
0.0700;9.92354;0.03318;9.92354
0.0701;9.92992;0.03294;9.92992
0.0704;9.93569;0.03302;9.93569
0.0705;9.94202;0.03304;9.94202
0.0707;9.94758;0.03297;9.94758
0.0708;9.95266;0.03285;9.95266
0.0709;9.95868;0.03275;9.95868
0.0711;9.96436;0.03276;9.96436
0.0715;9.96996;0.03242;9.96996
0.0716;9.97661;0.03238;9.97661
0.0719;9.98325;0.03248;9.98325
0.0720;9.98837;0.03231;9.98837
0.0722;9.99516;0.03226;9.99516
0.0723;10.00071;0.03226;10.00071
0.0729;10.00896;0.03208;10.00896
0.0732;10.01798;0.03190;10.01798
0.0735;10.02626;0.03204;10.02626
0.0736;10.03199;0.03179;10.03199
0.0739;10.03998;0.03180;10.03998
0.0742;10.04744;0.03182;10.04744
0.0744;10.05309;0.03186;10.05309
0.0745;10.05924;0.03172;10.05924
0.0746;10.06590;0.03179;10.06590
0.0748;10.07470;0.03183;10.07470
0.0750;10.08067;0.03186;10.08067
0.0752;10.08725;0.03166;10.08725
0.0754;10.09242;0.03179;10.09242
0.0755;10.10069;0.03157;10.10069
0.0757;10.10703;0.03165;10.10703
0.0759;10.11490;0.03173;10.11490
0.0762;10.12093;0.03180;10.12093
0.0766;10.12701;0.03204;10.12701
0.0770;10.13313;0.03198;10.13313
0.0772;10.13920;0.03208;10.13920
0.0772;10.14498;0.03204;10.14498
0.0774;10.15166;0.03228;10.15166
0.0775;10.15880;0.03218;10.15880
0.0776;10.16451;0.03213;10.16451
0.0778;10.17000;0.03233;10.17000
0.0779;10.17819;0.03229;10.17819
0.0785;10.18375;0.03271;10.18375
0.0787;10.18934;0.03264;10.18934
0.0789;10.19565;0.03265;10.19565
0.0791;10.20277;0.03259;10.20277
0.0792;10.20853;0.03262;10.20853
0.0795;10.21358;0.03283;10.21358
0.0796;10.21887;0.03283;10.21887
0.0798;10.22398;0.03295;10.22398
0.0798;10.22920;0.03310;10.22920
0.0799;10.23423;0.03302;10.23423
0.0803;10.24323;0.03281;10.24323
0.0805;10.25023;0.03299;10.25023
0.0809;10.25869;0.03301;10.25869
0.0809;10.26400;0.03300;10.26400
0.0812;10.26961;0.03293;10.26961
0.0815;10.27501;0.03272;10.27501
0.0816;10.28236;0.03295;10.28236
0.0818;10.28872;0.03300;10.28872
0.0822;10.29722;0.03323;10.29722
0.0827;10.30243;0.03298;10.30243
0.0829;10.31030;0.03330;10.31030
0.0832;10.31733;0.03365;10.31733
0.0835;10.32488;0.03362;10.32488
0.0838;10.33059;0.03378;10.33059
0.0839;10.33570;0.03374;10.33570
0.0842;10.34521;0.03392;10.34521
0.0846;10.35212;0.03385;10.35212
0.0847;10.35841;0.03386;10.35841
0.0849;10.36587;0.03387;10.36587
0.0849;10.37165;0.03374;10.37165
0.0854;10.37756;0.03354;10.37756
0.0859;10.38270;0.03334;10.38270
0.0861;10.38958;0.03344;10.38958
0.0863;10.39958;0.03334;10.39958
0.0867;10.40618;0.03358;10.40618
0.0868;10.41413;0.03349;10.41413
0.0872;10.42227;0.03356;10.42227
0.0875;10.42882;0.03348;10.42882
0.0875;10.43609;0.03326;10.43609
0.0879;10.44403;0.03330;10.44403
0.0880;10.45184;0.03319;10.45184
0.0881;10.45808;0.03316;10.45808
0.0881;10.46392;0.03314;10.46392
0.0882;10.46995;0.03300;10.46995
0.0886;10.47589;0.03286;10.47589
0.0888;10.48366;0.03277;10.48366
0.0891;10.48969;0.03254;10.48969
0.0895;10.49775;0.03255;10.49775
0.0895;10.50304;0.03248;10.50304
0.0899;10.50828;0.03238;10.50828
0.0901;10.51888;0.03223;10.51888
0.0902;10.52454;0.03225;10.52454
0.0903;10.51858;0.03226;10.51858
0.0906;10.52477;0.03188;10.52477
0.0908;10.53134;0.03188;10.53134
0.0908;10.53637;0.03180;10.53637
0.0909;10.54446;0.03174;10.54446
0.0912;10.54978;0.03137;10.54978
0.0915;10.55876;0.03115;10.55876
0.0919;10.56404;0.03093;10.56404
0.0920;10.57010;0.03083;10.57010
0.0921;10.57527;0.03073;10.57527
0.0922;10.58101;0.03066;10.58101
0.0923;10.58817;0.03044;10.58817
0.0925;10.59497;0.03029;10.59497
0.0927;10.60053;0.03031;10.60053
0.0928;10.61273;0.03025;10.61273
0.0932;10.62052;0.03003;10.62052
0.0935;10.62836;0.02997;10.62836
0.0937;10.63599;0.02987;10.63599
0.0944;10.64229;0.02968;10.64229
0.0945;10.65004;0.02973;10.65004
0.0949;10.65784;0.02975;10.65784
0.0952;10.66388;0.02974;10.66388
0.0955;10.67015;0.02965;10.67015
0.0956;10.67752;0.02982;10.67752
0.0957;10.68387;0.02989;10.68387
0.0958;10.69041;0.02983;10.69041
0.0961;10.69597;0.03016;10.69597
0.0962;10.70199;0.03027;10.70199
0.0965;10.70811;0.03053;10.70811
0.0967;10.71417;0.03056;10.71417
0.0969;10.72163;0.03078;10.72163
0.0971;10.72731;0.03091;10.72731
0.0973;10.73233;0.03113;10.73233
0.0975;10.73799;0.03109;10.73799
0.0978;10.74481;0.03110;10.74481
0.0979;10.75078;0.03101;10.75078
0.0984;10.75714;0.03137;10.75714
0.0985;10.76598;0.03140;10.76598
0.0987;10.77114;0.03161;10.77114
0.0989;10.77818;0.03171;10.77818
0.0991;10.78326;0.03188;10.78326
0.0992;10.78972;0.03196;10.78972
0.0995;10.79643;0.03202;10.79643
0.0996;10.80376;0.03223;10.80376
0.0998;10.81126;0.03213;10.81126
0.1003;10.81637;0.03251;10.81637
0.1005;10.82299;0.03241;10.82299
0.1007;10.82807;0.03238;10.82807
0.1011;10.83307;0.03238;10.83307
0.1014;10.83823;0.03215;10.83823
0.1016;10.84679;0.03208;10.84679
0.1019;10.85235;0.03175;10.85235
0.1021;10.85884;0.03175;10.85884
0.1022;10.86448;0.03171;10.86448
0.1023;10.87058;0.03155;10.87058
0.1026;10.87741;0.03140;10.87741
0.1027;10.88467;0.03126;10.88467
0.1028;10.89051;0.03135;10.89051
0.1031;10.89564;0.03102;10.89564
0.1035;10.90273;0.03092;10.90273
0.1039;10.90988;0.03062;10.90988
0.1042;10.91489;0.03058;10.91489
0.1044;10.92048;0.03033;10.92048
0.1046;10.92715;0.03021;10.92715
0.1049;10.93252;0.03004;10.93252
0.1053;10.93931;0.02968;10.93931
0.1055;10.94515;0.02952;10.94515
0.1059;10.95453;0.02939;10.95453
0.1064;10.96117;0.02909;10.96117
0.1066;10.96887;0.02903;10.96887
0.1070;10.97640;0.02891;10.97640
0.1072;10.98476;0.02881;10.98476
0.1075;10.99061;0.02854;10.99061
0.1079;10.99855;0.02814;10.99855
0.1079;11.00378;0.02810;11.00378
0.1083;11.00936;0.02790;11.00936
0.1084;11.01592;0.02773;11.01592
0.1089;11.02177;0.02750;11.02177
0.1092;11.02729;0.02736;11.02729
0.1095;11.03272;0.02739;11.03272
0.1098;11.03897;0.02747;11.03897
0.1104;11.04495;0.02782;11.04495
0.1105;11.05088;0.02789;11.05088
0.1109;11.05775;0.02808;11.05775
0.1115;11.06350;0.02816;11.06350
0.1115;11.06851;0.02828;11.06851
0.1118;11.07588;0.02838;11.07588
0.1122;11.08396;0.02825;11.08396
0.1125;11.09274;0.02823;11.09274
0.1129;11.10039;0.02818;11.10039
0.1131;11.10654;0.02825;11.10654
0.1132;11.11263;0.02831;11.11263
0.1133;11.11882;0.02823;11.11882
0.1135;11.12488;0.02839;11.12488
0.1138;11.13236;0.02857;11.13236
0.1139;11.13837;0.02845;11.13837
0.1140;11.14346;0.02868;11.14346
0.1145;11.14905;0.02882;11.14905
0.1149;11.15497;0.02881;11.15497
0.1155;11.16104;0.02900;11.16104
0.1158;11.17338;0.02908;11.17338
0.1161;11.16808;0.02911;11.16808
0.1164;11.17564;0.02908;11.17564
0.1165;11.18521;0.02911;11.18521
0.1170;11.19079;0.02927;11.19079
0.1172;11.20045;0.02930;11.20045
0.1175;11.20697;0.02935;11.20697
0.1178;11.21435;0.02942;11.21435
0.1182;11.22097;0.02942;11.22097
0.1185;11.22598;0.02959;11.22598
0.1187;11.23176;0.02952;11.23176
0.1189;11.23727;0.02966;11.23727
0.1193;11.24271;0.02976;11.24271
0.1196;11.24949;0.02990;11.24949
0.1198;11.25512;0.02994;11.25512
0.1199;11.26554;0.03003;11.26554
0.1201;11.27139;0.03005;11.27139
0.1206;11.27899;0.03042;11.27899
0.1208;11.28549;0.03049;11.28549
0.1210;11.29118;0.03064;11.29118
0.1215;11.29698;0.03078;11.29698
0.1219;11.30239;0.03073;11.30239
0.1222;11.30876;0.03072;11.30876
0.1226;11.31415;0.03057;11.31415
0.1228;11.32003;0.03059;11.32003
0.1231;11.32514;0.03053;11.32514
0.1233;11.33022;0.03068;11.33022
0.1236;11.33566;0.03058;11.33566
0.1237;11.34105;0.03063;11.34105
0.1239;11.34800;0.03072;11.34800
0.1241;11.35396;0.03051;11.35396
0.1242;11.35964;0.03040;11.35964
0.1248;11.36691;0.03020;11.36691
0.1252;11.37507;0.03002;11.37507
0.1257;11.38120;0.02993;11.38120
0.1259;11.38869;0.02987;11.38869
0.1259;11.39400;0.02984;11.39400
0.1262;11.40204;0.02980;11.40204
0.1265;11.40842;0.02976;11.40842
0.1269;11.41465;0.02958;11.41465
0.1272;11.42073;0.02960;11.42073
0.1275;11.41336;0.02954;11.41336
0.1276;11.41972;0.02937;11.41972
0.1278;11.42663;0.02920;11.42663
0.1279;11.43535;0.02931;11.43535
0.1279;11.44131;0.02935;11.44131
0.1282;11.45036;0.02930;11.45036
0.1284;11.45670;0.02913;11.45670
0.1285;11.46668;0.02933;11.46668
0.1286;11.47233;0.02921;11.47233
0.1289;11.47982;0.02900;11.47982
0.1298;11.48609;0.02887;11.48609
0.1302;11.49152;0.02858;11.49152
0.1309;11.49890;0.02851;11.49890
0.1313;11.50451;0.02822;11.50451
0.1322;11.51332;0.02803;11.51332
0.1323;11.51849;0.02780;11.51849
0.1326;11.52483;0.02797;11.52483
0.1327;11.53031;0.02781;11.53031
0.1328;11.53538;0.02798;11.53538
0.1329;11.54078;0.02786;11.54078
0.1332;11.54596;0.02764;11.54596
0.1334;11.55271;0.02787;11.55271
0.1339;11.56031;0.02766;11.56031
0.1341;11.56937;0.02760;11.56937
0.1341;11.57583;0.02745;11.57583
0.1345;11.58180;0.02744;11.58180
0.1348;11.59249;0.02732;11.59249
0.1355;11.59978;0.02737;11.59978
0.1361;11.60892;0.02779;11.60892
0.1363;11.61449;0.02796;11.61449
0.1368;11.62167;0.02813;11.62167
0.1374;11.62914;0.02864;11.62914
0.1375;11.63968;0.02860;11.63968
0.1379;11.64591;0.02886;11.64591
0.1381;11.65536;0.02911;11.65536
0.1390;11.66086;0.02928;11.66086
0.1394;11.66717;0.02967;11.66717
0.1397;11.67455;0.02971;11.67455
0.1402;11.68095;0.02995;11.68095
0.1406;11.68709;0.03021;11.68709
0.1408;11.69405;0.03026;11.69405
0.1408;11.70019;0.03022;11.70019
0.1410;11.70766;0.03025;11.70766
0.1416;11.71294;0.03025;11.71294
0.1417;11.72050;0.03028;11.72050
0.1419;11.72553;0.03027;11.72553
0.1422;11.73123;0.03014;11.73123
0.1425;11.73656;0.03008;11.73656
0.1428;11.74180;0.03001;11.74180
0.1431;11.74834;0.03006;11.74834
0.1435;11.75432;0.02962;11.75432
0.1438;11.76033;0.02968;11.76033
0.1438;11.76626;0.02960;11.76626
0.1445;11.77656;0.02945;11.77656
0.1451;11.78174;0.02907;11.78174
0.1451;11.79016;0.02907;11.79016
0.1455;11.79594;0.02881;11.79594
0.1458;11.80173;0.02871;11.80173
0.1464;11.80953;0.02830;11.80953
0.1466;11.81602;0.02826;11.81602
0.1469;11.82184;0.02805;11.82184
0.1475;11.82887;0.02748;11.82887
0.1480;11.83551;0.02733;11.83551
0.1485;11.84145;0.02707;11.84145
0.1488;11.85037;0.02720;11.85037
0.1491;11.85687;0.02722;11.85687
0.1496;11.86327;0.02712;11.86327
0.1498;11.86227;0.02697;11.86227
0.1502;11.86877;0.02709;11.86877
0.1509;11.87418;0.02724;11.87418
0.1514;11.88119;0.02734;11.88119
0.1516;11.88789;0.02744;11.88789
0.1521;11.89376;0.02747;11.89376
0.1522;11.89898;0.02742;11.89898
0.1523;11.90414;0.02767;11.90414
0.1525;11.91005;0.02793;11.91005
0.1529;11.91729;0.02810;11.91729
0.1532;11.92294;0.02819;11.92294
0.1533;11.92844;0.02821;11.92844
0.1536;11.93688;0.02837;11.93688
0.1543;11.94353;0.02858;11.94353
0.1552;11.94871;0.02894;11.94871
0.1557;11.95526;0.02929;11.95526
0.1560;11.96042;0.02944;11.96042
0.1565;11.96598;0.02976;11.96598
0.1568;11.97183;0.02990;11.97183
0.1571;11.97764;0.02985;11.97764
0.1575;11.98426;0.02994;11.98426
0.1580;11.98928;0.03023;11.98928
0.1584;11.99581;0.03018;11.99581
0.1587;12.00044;0.03016;12.00044
