Part protocol
Network name;Part_Maxymos_2_MP-001_2017-03-14_14-42-12_RMS_bl_trans150obr_tepy_041_OK.csv
Protocol version;3.01.00






Result information
Date;2017/03/14
Time;14:42:12
Cycle number;41
Total result;OK
Triggered switch signals
Part serial number;RMS_bl_trans150obr_tepy_041
Measuring program name;Bl_trans
Measuring program number;1
Zero X offset;0.000;mm
Tara Y offset;0.0000;RMS









Process values - curve related
Block X;12.000;mm;XMIN-X;7.645;mm
Block Y;0.0254;RMS;XMIN-Y;0.0430;RMS
Ref X;-;mm;XMAX-X;12.000;mm
Peak-peak X;4.355;mm;XMAX-Y;0.0254;RMS
Peak-peak Y;0.4450;RMS;YMIN-X;11.763;mm
;;;YMIN-Y;0.0208;RMS
;;;YMAX-X;8.492;mm
;;;YMAX-Y;0.4658;RMS

Process values - EO related;Result;Entry;Exit;XMIN-X;XMIN-Y;XMAX-X;XMAX-Y;YMIN-Y;YMIN-X;YMAX-Y;YMAX-X;Calculated result;NOK cause;Violation X;Violation Y;Ref X;Ref Y;Switch force;Y-Diff;X-Diff;Force deviation ratio;Click ratio;Contact edge
;;;;mm;RMS;mm;RMS;RMS;mm;RMS;mm;-;-;-;-;-;-;-;-;-;-;-;-;
EO-01;OK;8.231;;;;;;;;;;;;;;;;
EO-02;OK;;;;;;;;;;;0.2610;;;;;;
EO-03;OK;;;;;;;;;;;0.4450;;;;;;
EO-04;None;
EO-05;None;
EO-06;None;
EO-07;None;
EO-08;None;
EO-09;None;
EO-10;None;


















Evaluation objects settings;Reaction;X reference;Y-Reference;XMin;XMax;YMin;YMax;Entry;Exit;Curve part;Catch zone X;Catch zone Y;EO Name;EO description;Re-entry ignored;Generate statistics;X-Hysteresis;Y-Hysteresis;Down sampling rate;Calc limit min;Calc limit max;Grad limit min;Grad limit max;Hyst limit min;Hyst limit max;Speed limit min;Speed limit max;Time limit min;Time limit max;Is curve inside box;GetRef type;CalcInput1 | dx;CalcInput2 | dx;Calc operation;Average limit min;Average limit max;Break max bending;Visualization offset X;Visualization offset Y;-;-;-
EO-01;LINE-X;ABSOLUTE;ABSOLUTE;8.037;8.473;0.1000;;BELOW;NONE;ANY;+50%;+0%;;;FALSE;TRUE;0.0;0.0;1;;;;;;;;;;;;;;;;;;;0.000;0.0000;;;
EO-02;CALC;ABSOLUTE;ABSOLUTE;-0.409;;1.5166;;NONE;NONE;ANY;+0%;+0%;;;FALSE;TRUE;0.0;0.0;1;0.000000;0.500000;;;;;;;;;;;PV_TABLE_CURVE | YMAX-X;EO-01 | ENTRY;Subtraction;;;;0.000;0.0000;;;
EO-03;CALC;ABSOLUTE;ABSOLUTE;10.518;;1.3638;;NONE;NONE;ANY;+0%;+0%;;;FALSE;TRUE;0.0;0.0;1;0.000000;1.000000;;;;;;;;;;;PV_TABLE_CURVE | YMAX-Y;PV_TABLE_CURVE | YMIN-Y;Subtraction;;;;0.000;0.0000;;;
EO-04;OFF
EO-05;OFF
EO-06;OFF
EO-07;OFF
EO-08;OFF
EO-09;OFF
EO-10;OFF



















Switch signal settings;Channel;Threshold at;;Trigger from;Reference;Latch until
Type S1;X;10.370;mm;LEFT;ABSOLUTE;None
Type S2;OFF

















Device information
Device type;maXYmos TL
Device type number;5877A0
Device serial number;4915792
Firmware version;1.1.12 (r21150-TL_v1.1.x)
-
-
-
-
-
IP Address;192.168.21.20
Network name;Maxymos 2
Profibus address;10
-
-
-
Station name;Maxymos 2
Company name;
Comment;











Channel-X settings
Use the settings from global setup;True
Sensor-X type;Potentiometer
Unit;mm
Used range from;8.000;mm
Used range to;12.000;mm
Decimal places;XXX.XXX
Scaling by;Teach-In
Point 1;-0.380;mm;16.488;%
Point 2;72.105;mm;72.105;%
Invert signal;FALSE
Filter;OFF
Test point;0.000;mm
Tolerance;0.010;mm
Enable sensor test by dig-input;FALSE
Zoom from;0.000;mm
Zoom to;100.000;mm
Master Measurement Enable;FALSE
Master Measurement Nominal Position;0.000;mm
Encoder interpolation factor;-
Encoder electrical interface;-
Encoder referencing type;-
Encoder referencing edge;-
Encoder pulses per minute;-
Encoder use every nth-mark;-
Reference;-
Encoder reference points;-
Encoder coding;-
Encoder width;-
Encoder optimization;-
Encoder clock frequency;-
Termination resistor;-








Channel-Y settings
Use the settings from global setup;True
Sensor-Y type;Â±10V
Unit;RMS
Used range from;0.0000;RMS
Used range to;10.0000;RMS
Decimal places;XX.XXXX
Scaling by;Calibration Sheet
Sensitivity;1000.0000;RMS;-4.000;mV/V
Zero point;0.0000;RMS;0.000;mV/V
Invert signal;FALSE
Filter;OFF
Piezo reset;-
Test point;0.0000;RMS
Tolerance;0.0000;RMS
Enable sensor test by dig-input;FALSE
Zoom from;0.0000;RMS
Zoom to;1000.0000;RMS












Cycle control settings
Use the settings from global setup;True
Measuring function;Y (X)
Delta-X;User-Defined;0.00500;mm
START condition;Threshold-X;7.500;mm;Trigger from;LEFT
STOP condition;Threshold-X;12.000;mm;Trigger from;LEFT
Cycle time out;2.00;s
Turning point RIGHT;YMAX
Turning point LEFT;NONE
Cut curve at;NONE










Evaluation settings
Capture only first NOK-EO for statistics;False
Hysteresis X;0.0;%
Hysteresis Y;0.0;%






Trigger Y settings
Threshold at;1.2839;RMS
Value X at TRIGGER Y;0.000;mm
Approach from;BELOW






Block settings
Value X at block;XMAX
Block at;0.000;mm







Measuring curve
Number of measuring points;731
Ref. Graph on;ABSOLUTE
Curve segments;0;137;136;731;


Time;X(ABSOLUTE);Y;X (ABSOLUTE)


s;mm;RMS;mm
0.0000;7.64521;0.04298;7.64521
0.0003;7.65666;0.04230;7.65666
0.0005;7.66202;0.04199;7.66202
0.0007;7.66977;0.04173;7.66977
0.0008;7.67488;0.04149;7.67488
0.0011;7.68075;0.04108;7.68075
0.0012;7.68636;0.04070;7.68636
0.0013;7.69295;0.04026;7.69295
0.0015;7.69892;0.04008;7.69892
0.0016;7.70589;0.03984;7.70589
0.0018;7.71164;0.03956;7.71164
0.0019;7.71745;0.03933;7.71745
0.0021;7.72465;0.03892;7.72465
0.0023;7.73071;0.03895;7.73071
0.0025;7.73619;0.03916;7.73619
0.0027;7.74147;0.03996;7.74147
0.0028;7.74648;0.04062;7.74648
0.0030;7.75241;0.04193;7.75241
0.0031;7.75811;0.04271;7.75811
0.0034;7.76526;0.04454;7.76526
0.0035;7.77051;0.04581;7.77051
0.0037;7.77599;0.04755;7.77599
0.0040;7.78137;0.04954;7.78137
0.0042;7.78645;0.05092;7.78645
0.0044;7.79149;0.05271;7.79149
0.0048;7.79783;0.05459;7.79783
0.0049;7.80315;0.05541;7.80315
0.0051;7.81028;0.05657;7.81028
0.0055;7.81531;0.06295;7.81531
0.0062;7.82056;0.07272;7.82056
0.0068;7.82576;0.07835;7.82576
0.0075;7.83148;0.08074;7.83148
0.0079;7.83741;0.08099;7.83741
0.0084;7.84312;0.08035;7.84312
0.0089;7.84872;0.07861;7.84872
0.0091;7.85482;0.07781;7.85482
0.0096;7.86217;0.07586;7.86217
0.0099;7.86819;0.07410;7.86819
0.0102;7.87620;0.07249;7.87620
0.0106;7.88169;0.07087;7.88169
0.0112;7.88716;0.06714;7.88716
0.0114;7.89216;0.06640;7.89216
0.0116;7.89802;0.06545;7.89802
0.0124;7.90393;0.06142;7.90393
0.0127;7.90944;0.06003;7.90944
0.0129;7.91492;0.05945;7.91492
0.0130;7.92031;0.05900;7.92031
0.0131;7.92601;0.05846;7.92601
0.0132;7.93233;0.05777;7.93233
0.0134;7.93772;0.05729;7.93772
0.0135;7.94306;0.05691;7.94306
0.0137;7.94858;0.05597;7.94858
0.0139;7.95430;0.05541;7.95430
0.0142;7.96008;0.05435;7.96008
0.0144;7.96619;0.05331;7.96619
0.0147;7.97236;0.05279;7.97236
0.0149;7.97765;0.05205;7.97765
0.0152;7.98338;0.05129;7.98338
0.0153;7.99019;0.05104;7.99019
0.0156;7.99650;0.05019;7.99650
0.0157;8.00416;0.04978;8.00416
0.0159;8.01119;0.04913;8.01119
0.0161;8.01867;0.04874;8.01867
0.0163;8.02450;0.04812;8.02450
0.0165;8.02960;0.04751;8.02960
0.0166;8.03509;0.04719;8.03509
0.0168;8.04164;0.04663;8.04164
0.0170;8.04882;0.04613;8.04882
0.0172;8.05611;0.04583;8.05611
0.0174;8.06330;0.04498;8.06330
0.0176;8.06935;0.04449;8.06935
0.0178;8.07447;0.04412;8.07447
0.0179;8.08012;0.04355;8.08012
0.0180;8.08584;0.04301;8.08584
0.0182;8.09189;0.04259;8.09189
0.0184;8.09703;0.04202;8.09703
0.0187;8.10343;0.04142;8.10343
0.0189;8.10958;0.04075;8.10958
0.0191;8.11665;0.04015;8.11665
0.0193;8.12176;0.03955;8.12176
0.0196;8.12679;0.03893;8.12679
0.0198;8.13250;0.03847;8.13250
0.0200;8.13795;0.03789;8.13795
0.0201;8.14498;0.03779;8.14498
0.0202;8.15311;0.03755;8.15311
0.0203;8.15886;0.03718;8.15886
0.0204;8.16491;0.03719;8.16491
0.0205;8.17069;0.03691;8.17069
0.0206;8.17590;0.03655;8.17590
0.0208;8.18229;0.03626;8.18229
0.0209;8.18952;0.03610;8.18952
0.0210;8.19507;0.03585;8.19507
0.0212;8.20103;0.03547;8.20103
0.0214;8.20629;0.03512;8.20629
0.0216;8.21142;0.03505;8.21142
0.0217;8.21807;0.04371;8.21807
0.0219;8.22209;0.06787;8.22209
0.0221;8.22536;0.08850;8.22536
0.0222;8.23149;0.10223;8.23149
0.0223;8.23746;0.12221;8.23746
0.0224;8.24267;0.13521;8.24267
0.0225;8.24984;0.14804;8.24984
0.0226;8.25521;0.16027;8.25521
0.0227;8.26183;0.17232;8.26183
0.0228;8.27014;0.18470;8.27014
0.0229;8.27792;0.19848;8.27792
0.0230;8.28394;0.22167;8.28394
0.0231;8.28961;0.23837;8.28961
0.0232;8.29821;0.25546;8.29821
0.0233;8.30696;0.27201;8.30696
0.0234;8.31741;0.28770;8.31741
0.0235;8.32308;0.29539;8.32308
0.0235;8.32813;0.30284;8.32813
0.0236;8.33632;0.31710;8.33632
0.0237;8.34280;0.33061;8.34280
0.0239;8.34933;0.35539;8.34933
0.0240;8.35513;0.37165;8.35513
0.0241;8.36351;0.38177;8.36351
0.0242;8.37253;0.39104;8.37253
0.0243;8.38237;0.39958;8.38237
0.0244;8.38928;0.40752;8.38928
0.0245;8.39718;0.41465;8.39718
0.0246;8.40395;0.42149;8.40395
0.0248;8.41054;0.43063;8.41054
0.0250;8.41565;0.44290;8.41565
0.0251;8.42145;0.44676;8.42145
0.0252;8.42657;0.44871;8.42657
0.0252;8.43270;0.45039;8.43270
0.0252;8.43781;0.45210;8.43781
0.0253;8.44394;0.45509;8.44394
0.0254;8.45142;0.45762;8.45142
0.0255;8.45669;0.45874;8.45669
0.0256;8.46461;0.46067;8.46461
0.0257;8.47173;0.46314;8.47173
0.0258;8.47919;0.46409;8.47919
0.0259;8.48601;0.46498;8.48601
0.0262;8.49152;0.46584;8.49152
0.0263;8.49895;0.46557;8.49895
0.0264;8.50688;0.46526;8.50688
0.0264;8.51295;0.46446;8.51295
0.0265;8.51953;0.46358;8.51953
0.0267;8.52861;0.46140;8.52861
0.0268;8.53575;0.45991;8.53575
0.0269;8.54148;0.45837;8.54148
0.0271;8.54824;0.45566;8.54824
0.0272;8.55497;0.45264;8.55497
0.0274;8.56235;0.44800;8.56235
0.0276;8.57077;0.44305;8.57077
0.0277;8.57580;0.44043;8.57580
0.0278;8.58286;0.43765;8.58286
0.0280;8.58830;0.43199;8.58830
0.0281;8.59582;0.42756;8.59582
0.0283;8.60179;0.42136;8.60179
0.0285;8.60774;0.41652;8.60774
0.0287;8.61283;0.40970;8.61283
0.0289;8.61788;0.40128;8.61788
0.0292;8.62346;0.39089;8.62346
0.0296;8.62990;0.37487;8.62990
0.0298;8.63733;0.36777;8.63733
0.0304;8.63933;0.34637;8.63933
0.0306;8.64551;0.33733;8.64551
0.0310;8.65160;0.32519;8.65160
0.0315;8.65311;0.30498;8.65311
0.0322;8.65866;0.28374;8.65866
0.0328;8.65939;0.26226;8.65939
0.0332;8.66441;0.25248;8.66441
0.0337;8.66952;0.23702;8.66952
0.0343;8.67583;0.22014;8.67583
0.0345;8.68111;0.21528;8.68111
0.0347;8.68702;0.21058;8.68702
0.0348;8.69212;0.20815;8.69212
0.0350;8.69818;0.20230;8.69818
0.0352;8.70718;0.19900;8.70718
0.0353;8.71320;0.19687;8.71320
0.0354;8.72144;0.19354;8.72144
0.0355;8.72799;0.19146;8.72799
0.0356;8.73513;0.18942;8.73513
0.0358;8.74204;0.18635;8.74204
0.0359;8.74718;0.18446;8.74718
0.0360;8.75277;0.18244;8.75277
0.0360;8.75792;0.18031;8.75792
0.0362;8.76324;0.17653;8.76324
0.0364;8.76918;0.17275;8.76918
0.0365;8.77442;0.17088;8.77442
0.0367;8.77977;0.16814;8.77977
0.0369;8.78498;0.16468;8.78498
0.0370;8.79179;0.16274;8.79179
0.0371;8.79871;0.16030;8.79871
0.0372;8.80448;0.15877;8.80448
0.0373;8.81156;0.15618;8.81156
0.0374;8.81945;0.15460;8.81945
0.0376;8.82674;0.15235;8.82674
0.0377;8.83354;0.15016;8.83354
0.0378;8.83915;0.14860;8.83915
0.0380;8.84456;0.14635;8.84456
0.0382;8.85005;0.14349;8.85005
0.0384;8.85572;0.13934;8.85572
0.0386;8.86390;0.13739;8.86390
0.0387;8.87095;0.13583;8.87095
0.0388;8.87749;0.13395;8.87749
0.0389;8.88345;0.13261;8.88345
0.0391;8.88970;0.13079;8.88970
0.0392;8.89740;0.12966;8.89740
0.0393;8.90284;0.12850;8.90284
0.0395;8.90903;0.12611;8.90903
0.0396;8.91467;0.12422;8.91467
0.0397;8.92083;0.12259;8.92083
0.0400;8.92652;0.11957;8.92652
0.0401;8.93190;0.11776;8.93190
0.0403;8.93708;0.11565;8.93708
0.0404;8.94226;0.11448;8.94226
0.0405;8.95020;0.11342;8.95020
0.0406;8.95715;0.11248;8.95715
0.0407;8.96464;0.11133;8.96464
0.0408;8.96979;0.11010;8.96979
0.0409;8.97588;0.10917;8.97588
0.0411;8.98092;0.10701;8.98092
0.0413;8.98664;0.10458;8.98664
0.0415;8.99319;0.10297;8.99319
0.0417;9.00016;0.10057;9.00016
0.0419;9.00666;0.09862;9.00666
0.0422;9.01322;0.09594;9.01322
0.0423;9.01890;0.09489;9.01890
0.0424;9.02451;0.09358;9.02451
0.0426;9.03042;0.09230;9.03042
0.0428;9.03588;0.09052;9.03588
0.0431;9.04278;0.08799;9.04278
0.0432;9.04858;0.08724;9.04858
0.0432;9.05510;0.08645;9.05510
0.0434;9.06071;0.08529;9.06071
0.0435;9.06580;0.08399;9.06580
0.0438;9.07143;0.08170;9.07143
0.0441;9.07699;0.08019;9.07699
0.0443;9.08466;0.07869;9.08466
0.0444;9.09028;0.07746;9.09028
0.0449;9.09574;0.07455;9.09574
0.0452;9.10162;0.07239;9.10162
0.0454;9.10775;0.07116;9.10775
0.0456;9.11316;0.06979;9.11316
0.0459;9.11900;0.06848;9.11900
0.0461;9.12602;0.06733;9.12602
0.0462;9.13109;0.06686;9.13109
0.0463;9.13614;0.06598;9.13614
0.0465;9.14216;0.06532;9.14216
0.0467;9.15028;0.06382;9.15028
0.0468;9.15542;0.06304;9.15542
0.0470;9.16159;0.06247;9.16159
0.0472;9.16740;0.06147;9.16740
0.0473;9.17429;0.06068;9.17429
0.0475;9.18038;0.05989;9.18038
0.0476;9.18626;0.05926;9.18626
0.0480;9.19199;0.05750;9.19199
0.0480;9.19740;0.05699;9.19740
0.0482;9.20311;0.05596;9.20311
0.0484;9.21037;0.05501;9.21037
0.0486;9.21550;0.05401;9.21550
0.0489;9.22599;0.05298;9.22599
0.0490;9.23213;0.05247;9.23213
0.0492;9.23887;0.05188;9.23887
0.0493;9.24719;0.05113;9.24719
0.0495;9.25273;0.05068;9.25273
0.0497;9.25847;0.04966;9.25847
0.0499;9.26435;0.04881;9.26435
0.0501;9.27090;0.04846;9.27090
0.0502;9.27630;0.04802;9.27630
0.0504;9.28143;0.04735;9.28143
0.0506;9.28708;0.04657;9.28708
0.0508;9.29328;0.04607;9.29328
0.0510;9.29866;0.04565;9.29866
0.0513;9.30384;0.04479;9.30384
0.0515;9.31038;0.04433;9.31038
0.0516;9.31856;0.04388;9.31856
0.0519;9.32477;0.04317;9.32477
0.0521;9.33075;0.04278;9.33075
0.0524;9.33598;0.04220;9.33598
0.0526;9.34200;0.04206;9.34200
0.0528;9.34849;0.04158;9.34849
0.0531;9.35439;0.04120;9.35439
0.0533;9.36061;0.04072;9.36061
0.0534;9.36667;0.04062;9.36667
0.0537;9.37194;0.04025;9.37194
0.0539;9.37778;0.03991;9.37778
0.0541;9.38485;0.03973;9.38485
0.0542;9.39158;0.03954;9.39158
0.0543;9.39704;0.03928;9.39704
0.0545;9.40374;0.03921;9.40374
0.0547;9.40930;0.03902;9.40930
0.0549;9.41445;0.03890;9.41445
0.0550;9.41980;0.03882;9.41980
0.0552;9.42763;0.03862;9.42763
0.0556;9.43513;0.03819;9.43513
0.0559;9.44229;0.03792;9.44229
0.0561;9.44739;0.03759;9.44739
0.0563;9.45375;0.03748;9.45375
0.0564;9.45983;0.03733;9.45983
0.0566;9.46491;0.03729;9.46491
0.0567;9.47103;0.03721;9.47103
0.0569;9.47795;0.03687;9.47795
0.0571;9.48430;0.03677;9.48430
0.0573;9.49112;0.03659;9.49112
0.0576;9.49616;0.03626;9.49616
0.0577;9.50185;0.03609;9.50185
0.0579;9.50687;0.03561;9.50687
0.0582;9.51228;0.03540;9.51228
0.0584;9.51792;0.03504;9.51792
0.0586;9.52384;0.03480;9.52384
0.0588;9.52950;0.03451;9.52950
0.0590;9.53556;0.03408;9.53556
0.0592;9.54095;0.03392;9.54095
0.0595;9.54616;0.03342;9.54616
0.0597;9.55284;0.03301;9.55284
0.0600;9.55856;0.03264;9.55856
0.0601;9.56418;0.03246;9.56418
0.0603;9.57088;0.03216;9.57088
0.0604;9.57703;0.03202;9.57703
0.0605;9.58358;0.03175;9.58358
0.0607;9.58892;0.03151;9.58892
0.0608;9.59400;0.03139;9.59400
0.0610;9.60073;0.03094;9.60073
0.0612;9.60709;0.03063;9.60709
0.0614;9.61276;0.03033;9.61276
0.0618;9.61983;0.02968;9.61983
0.0621;9.62582;0.02969;9.62582
0.0623;9.63181;0.02928;9.63181
0.0626;9.63810;0.02880;9.63810
0.0627;9.64347;0.02881;9.64347
0.0629;9.64851;0.02855;9.64851
0.0630;9.65377;0.02858;9.65377
0.0632;9.65989;0.02830;9.65989
0.0633;9.66525;0.02815;9.66525
0.0634;9.67140;0.02798;9.67140
0.0636;9.67695;0.02788;9.67695
0.0639;9.68458;0.02753;9.68458
0.0640;9.68975;0.02748;9.68975
0.0641;9.69508;0.02742;9.69508
0.0643;9.70036;0.02728;9.70036
0.0645;9.70585;0.02721;9.70585
0.0647;9.71281;0.02717;9.71281
0.0648;9.71898;0.02692;9.71898
0.0649;9.72693;0.02712;9.72693
0.0650;9.73285;0.02706;9.73285
0.0651;9.73971;0.02702;9.73971
0.0653;9.74479;0.02694;9.74479
0.0654;9.75019;0.02694;9.75019
0.0655;9.75697;0.02676;9.75697
0.0657;9.76215;0.02689;9.76215
0.0659;9.76807;0.02684;9.76807
0.0661;9.77383;0.02682;9.77383
0.0662;9.77894;0.02692;9.77894
0.0664;9.78582;0.02687;9.78582
0.0668;9.79206;0.02678;9.79206
0.0669;9.79771;0.02683;9.79771
0.0670;9.80274;0.02692;9.80274
0.0672;9.80802;0.02694;9.80802
0.0673;9.81438;0.02696;9.81438
0.0674;9.81969;0.02695;9.81969
0.0675;9.82519;0.02699;9.82519
0.0676;9.83034;0.02680;9.83034
0.0679;9.83672;0.02689;9.83672
0.0682;9.84178;0.02716;9.84178
0.0684;9.84955;0.02719;9.84955
0.0686;9.85492;0.02737;9.85492
0.0688;9.86212;0.02734;9.86212
0.0690;9.86736;0.02732;9.86736
0.0692;9.87283;0.02739;9.87283
0.0695;9.87928;0.02765;9.87928
0.0696;9.88492;0.02772;9.88492
0.0697;9.88993;0.02771;9.88993
0.0699;9.89510;0.02777;9.89510
0.0700;9.90030;0.02776;9.90030
0.0702;9.90636;0.02774;9.90636
0.0704;9.91189;0.02783;9.91189
0.0708;9.91692;0.02798;9.91692
0.0712;9.92273;0.02811;9.92273
0.0713;9.92836;0.02813;9.92836
0.0715;9.93404;0.02820;9.93404
0.0717;9.94039;0.02806;9.94039
0.0719;9.94635;0.02833;9.94635
0.0720;9.95285;0.02828;9.95285
0.0722;9.95930;0.02847;9.95930
0.0725;9.96582;0.02848;9.96582
0.0727;9.97314;0.02861;9.97314
0.0729;9.97960;0.02878;9.97960
0.0731;9.98663;0.02876;9.98663
0.0732;9.99215;0.02894;9.99215
0.0736;9.99790;0.02920;9.99790
0.0740;10.00313;0.02920;10.00313
0.0741;10.00873;0.02925;10.00873
0.0743;10.01663;0.02921;10.01663
0.0744;10.02225;0.02919;10.02225
0.0746;10.02888;0.02937;10.02888
0.0749;10.03528;0.02959;10.03528
0.0751;10.04077;0.02960;10.04077
0.0752;10.04580;0.02972;10.04580
0.0753;10.05234;0.02969;10.05234
0.0755;10.06010;0.02993;10.06010
0.0755;10.06705;0.02978;10.06705
0.0757;10.07411;0.03004;10.07411
0.0760;10.08102;0.03031;10.08102
0.0761;10.08778;0.03018;10.08778
0.0762;10.09304;0.03018;10.09304
0.0764;10.09827;0.03052;10.09827
0.0765;10.10506;0.03039;10.10506
0.0767;10.11133;0.03052;10.11133
0.0769;10.11680;0.03034;10.11680
0.0771;10.12198;0.03070;10.12198
0.0776;10.12746;0.03072;10.12746
0.0779;10.13346;0.03072;10.13346
0.0781;10.14075;0.03072;10.14075
0.0782;10.14976;0.03076;10.14976
0.0783;10.15636;0.03069;10.15636
0.0784;10.16166;0.03076;10.16166
0.0785;10.16679;0.03066;10.16679
0.0789;10.17249;0.03063;10.17249
0.0792;10.17749;0.03061;10.17749
0.0795;10.18408;0.03065;10.18408
0.0796;10.18909;0.03053;10.18909
0.0797;10.19414;0.03052;10.19414
0.0800;10.20038;0.03043;10.20038
0.0802;10.20612;0.03021;10.20612
0.0805;10.21216;0.03010;10.21216
0.0807;10.21832;0.03002;10.21832
0.0808;10.22371;0.03004;10.22371
0.0810;10.22929;0.02990;10.22929
0.0813;10.23445;0.02980;10.23445
0.0815;10.23967;0.02944;10.23967
0.0816;10.24564;0.02950;10.24564
0.0818;10.25066;0.02941;10.25066
0.0819;10.25616;0.02917;10.25616
0.0821;10.26317;0.02922;10.26317
0.0823;10.26933;0.02891;10.26933
0.0825;10.27468;0.02882;10.27468
0.0827;10.28023;0.02873;10.28023
0.0830;10.28575;0.02831;10.28575
0.0832;10.29279;0.02806;10.29279
0.0834;10.29829;0.02788;10.29829
0.0836;10.30353;0.02770;10.30353
0.0839;10.30928;0.02751;10.30928
0.0841;10.31434;0.02727;10.31434
0.0843;10.32108;0.02724;10.32108
0.0845;10.32620;0.02711;10.32620
0.0847;10.33170;0.02702;10.33170
0.0849;10.33710;0.02710;10.33710
0.0851;10.34233;0.02704;10.34233
0.0852;10.34786;0.02707;10.34786
0.0853;10.35480;0.02698;10.35480
0.0855;10.36097;0.02698;10.36097
0.0857;10.36649;0.02694;10.36649
0.0860;10.37191;0.02699;10.37191
0.0862;10.37945;0.02664;10.37945
0.0865;10.38467;0.02662;10.38467
0.0867;10.39221;0.02633;10.39221
0.0869;10.39752;0.02637;10.39752
0.0872;10.40301;0.02607;10.40301
0.0873;10.40834;0.02614;10.40834
0.0875;10.41390;0.02603;10.41390
0.0876;10.42029;0.02603;10.42029
0.0877;10.42566;0.02556;10.42566
0.0879;10.43143;0.02559;10.43143
0.0881;10.43755;0.02545;10.43755
0.0882;10.44406;0.02547;10.44406
0.0884;10.45268;0.02533;10.45268
0.0885;10.45860;0.02537;10.45860
0.0886;10.46425;0.02545;10.46425
0.0888;10.47011;0.02532;10.47011
0.0890;10.47571;0.02519;10.47571
0.0893;10.48146;0.02507;10.48146
0.0895;10.48723;0.02510;10.48723
0.0898;10.49279;0.02502;10.49279
0.0899;10.49793;0.02504;10.49793
0.0901;10.50319;0.02507;10.50319
0.0906;10.50955;0.02509;10.50955
0.0910;10.51520;0.02507;10.51520
0.0912;10.52085;0.02507;10.52085
0.0913;10.52674;0.02503;10.52674
0.0915;10.53259;0.02494;10.53259
0.0917;10.53856;0.02486;10.53856
0.0919;10.54409;0.02491;10.54409
0.0922;10.54964;0.02487;10.54964
0.0925;10.55548;0.02495;10.55548
0.0927;10.56137;0.02487;10.56137
0.0929;10.56838;0.02471;10.56838
0.0930;10.57345;0.02503;10.57345
0.0931;10.57877;0.02501;10.57877
0.0932;10.58390;0.02482;10.58390
0.0934;10.59128;0.02488;10.59128
0.0935;10.59755;0.02507;10.59755
0.0937;10.60257;0.02512;10.60257
0.0940;10.60867;0.02525;10.60867
0.0942;10.61401;0.02524;10.61401
0.0944;10.61975;0.02530;10.61975
0.0946;10.62481;0.02551;10.62481
0.0948;10.63059;0.02568;10.63059
0.0953;10.63642;0.02578;10.63642
0.0955;10.64200;0.02609;10.64200
0.0957;10.64706;0.02606;10.64706
0.0960;10.65252;0.02606;10.65252
0.0962;10.65771;0.02630;10.65771
0.0964;10.66348;0.02617;10.66348
0.0966;10.67063;0.02622;10.67063
0.0967;10.67651;0.02614;10.67651
0.0968;10.68241;0.02609;10.68241
0.0970;10.68846;0.02615;10.68846
0.0971;10.69407;0.02595;10.69407
0.0973;10.69914;0.02610;10.69914
0.0975;10.70418;0.02593;10.70418
0.0977;10.71078;0.02579;10.71078
0.0979;10.71607;0.02573;10.71607
0.0982;10.72372;0.02557;10.72372
0.0983;10.73065;0.02548;10.73065
0.0986;10.73605;0.02531;10.73605
0.0988;10.74227;0.02516;10.74227
0.0990;10.74949;0.02504;10.74949
0.0994;10.75466;0.02475;10.75466
0.0995;10.76104;0.02488;10.76104
0.0996;10.76697;0.02458;10.76697
0.0998;10.77233;0.02463;10.77233
0.1000;10.77775;0.02450;10.77775
0.1002;10.78356;0.02433;10.78356
0.1004;10.78914;0.02399;10.78914
0.1006;10.79445;0.02400;10.79445
0.1008;10.80006;0.02378;10.80006
0.1010;10.80584;0.02351;10.80584
0.1014;10.81111;0.02342;10.81111
0.1016;10.81670;0.02325;10.81670
0.1018;10.82305;0.02332;10.82305
0.1022;10.82911;0.02279;10.82911
0.1024;10.83412;0.02273;10.83412
0.1026;10.83944;0.02276;10.83944
0.1029;10.84535;0.02261;10.84535
0.1031;10.85158;0.02247;10.85158
0.1034;10.85737;0.02232;10.85737
0.1036;10.86384;0.02228;10.86384
0.1038;10.87069;0.02237;10.87069
0.1040;10.87667;0.02218;10.87667
0.1042;10.88384;0.02229;10.88384
0.1044;10.88951;0.02218;10.88951
0.1046;10.89574;0.02219;10.89574
0.1053;10.90085;0.02207;10.90085
0.1055;10.90601;0.02196;10.90601
0.1057;10.91165;0.02201;10.91165
0.1059;10.91733;0.02193;10.91733
0.1061;10.92358;0.02216;10.92358
0.1062;10.92860;0.02215;10.92860
0.1066;10.93413;0.02233;10.93413
0.1069;10.94037;0.02242;10.94037
0.1070;10.94666;0.02247;10.94666
0.1074;10.95211;0.02262;10.95211
0.1076;10.95978;0.02299;10.95978
0.1079;10.96681;0.02299;10.96681
0.1081;10.97304;0.02317;10.97304
0.1083;10.97834;0.02317;10.97834
0.1085;10.98357;0.02315;10.98357
0.1087;10.98975;0.02344;10.98975
0.1088;10.99481;0.02343;10.99481
0.1090;11.00102;0.02344;11.00102
0.1092;11.00609;0.02346;11.00609
0.1094;11.01307;0.02362;11.01307
0.1097;11.01841;0.02366;11.01841
0.1101;11.02448;0.02373;11.02448
0.1103;11.03000;0.02384;11.03000
0.1107;11.03505;0.02409;11.03505
0.1110;11.04062;0.02412;11.04062
0.1113;11.04570;0.02438;11.04570
0.1115;11.05072;0.02451;11.05072
0.1117;11.05604;0.02454;11.05604
0.1122;11.06107;0.02473;11.06107
0.1124;11.06628;0.02477;11.06628
0.1127;11.07142;0.02471;11.07142
0.1130;11.07693;0.02481;11.07693
0.1132;11.08256;0.02486;11.08256
0.1135;11.08864;0.02484;11.08864
0.1138;11.09391;0.02498;11.09391
0.1141;11.10053;0.02539;11.10053
0.1143;11.10654;0.02534;11.10654
0.1144;11.11208;0.02547;11.11208
0.1145;11.11765;0.02547;11.11765
0.1148;11.12270;0.02577;11.12270
0.1150;11.12824;0.02583;11.12824
0.1152;11.13386;0.02604;11.13386
0.1155;11.13914;0.02622;11.13914
0.1157;11.14475;0.02629;11.14475
0.1161;11.14991;0.02663;11.14991
0.1165;11.15562;0.02693;11.15562
0.1171;11.16091;0.02700;11.16091
0.1174;11.16615;0.02708;11.16615
0.1178;11.17319;0.02698;11.17319
0.1179;11.18029;0.02715;11.18029
0.1182;11.18594;0.02707;11.18594
0.1184;11.19178;0.02718;11.19178
0.1186;11.19835;0.02715;11.19835
0.1188;11.20413;0.02714;11.20413
0.1191;11.20915;0.02700;11.20915
0.1192;11.21438;0.02694;11.21438
0.1197;11.22123;0.02682;11.22123
0.1200;11.22663;0.02664;11.22663
0.1202;11.23182;0.02661;11.23182
0.1205;11.23692;0.02681;11.23692
0.1209;11.24223;0.02655;11.24223
0.1211;11.24774;0.02658;11.24774
0.1213;11.25299;0.02668;11.25299
0.1215;11.25964;0.02640;11.25964
0.1218;11.26565;0.02629;11.26565
0.1221;11.27070;0.02620;11.27070
0.1223;11.27737;0.02615;11.27737
0.1225;11.28279;0.02606;11.28279
0.1227;11.28835;0.02612;11.28835
0.1232;11.29364;0.02573;11.29364
0.1235;11.30006;0.02560;11.30006
0.1240;11.30654;0.02520;11.30654
0.1243;11.31289;0.02499;11.31289
0.1244;11.31790;0.02478;11.31790
0.1248;11.32404;0.02457;11.32404
0.1250;11.32962;0.02438;11.32962
0.1254;11.33462;0.02425;11.33462
0.1256;11.34129;0.02420;11.34129
0.1257;11.34672;0.02422;11.34672
0.1260;11.35229;0.02385;11.35229
0.1262;11.35776;0.02372;11.35776
0.1264;11.36299;0.02365;11.36299
0.1269;11.36865;0.02332;11.36865
0.1270;11.37442;0.02335;11.37442
0.1272;11.38011;0.02310;11.38011
0.1275;11.38560;0.02309;11.38560
0.1276;11.39354;0.02311;11.39354
0.1278;11.39880;0.02314;11.39880
0.1282;11.40402;0.02293;11.40402
0.1285;11.40975;0.02270;11.40975
0.1288;11.41553;0.02264;11.41553
0.1292;11.42290;0.02252;11.42290
0.1294;11.42951;0.02255;11.42951
0.1296;11.43682;0.02266;11.43682
0.1297;11.44431;0.02270;11.44431
0.1298;11.45208;0.02248;11.45208
0.1300;11.46005;0.02256;11.46005
0.1301;11.46762;0.02268;11.46762
0.1303;11.47297;0.02272;11.47297
0.1311;11.47904;0.02283;11.47904
0.1316;11.48439;0.02309;11.48439
0.1320;11.48968;0.02334;11.48968
0.1323;11.49535;0.02355;11.49535
0.1331;11.50050;0.02390;11.50050
0.1335;11.50788;0.02419;11.50788
0.1336;11.51310;0.02418;11.51310
0.1337;11.51978;0.02412;11.51978
0.1339;11.52688;0.02418;11.52688
0.1341;11.53336;0.02435;11.53336
0.1344;11.53921;0.02439;11.53921
0.1346;11.54475;0.02437;11.54475
0.1350;11.55058;0.02444;11.55058
0.1352;11.55613;0.02445;11.55613
0.1354;11.56254;0.02457;11.56254
0.1355;11.56770;0.02467;11.56770
0.1356;11.57365;0.02464;11.57365
0.1359;11.57929;0.02466;11.57929
0.1364;11.58447;0.02480;11.58447
0.1368;11.58986;0.02469;11.58986
0.1372;11.59530;0.02481;11.59530
0.1375;11.60085;0.02453;11.60085
0.1377;11.60615;0.02446;11.60615
0.1379;11.61241;0.02429;11.61241
0.1384;11.61835;0.02403;11.61835
0.1387;11.62337;0.02374;11.62337
0.1389;11.62868;0.02369;11.62868
0.1391;11.63438;0.02343;11.63438
0.1394;11.64023;0.02329;11.64023
0.1396;11.64552;0.02311;11.64552
0.1402;11.65146;0.02258;11.65146
0.1405;11.65670;0.02234;11.65670
0.1409;11.66277;0.02225;11.66277
0.1413;11.66857;0.02181;11.66857
0.1420;11.67505;0.02168;11.67505
0.1424;11.68129;0.02177;11.68129
0.1425;11.68832;0.02152;11.68832
0.1427;11.69558;0.02162;11.69558
0.1428;11.70114;0.02152;11.70114
0.1430;11.70648;0.02168;11.70648
0.1433;11.71170;0.02141;11.71170
0.1435;11.71746;0.02152;11.71746
0.1436;11.72347;0.02147;11.72347
0.1439;11.72941;0.02122;11.72941
0.1442;11.73450;0.02139;11.73450
0.1444;11.73962;0.02130;11.73962
0.1447;11.74558;0.02128;11.74558
0.1451;11.75117;0.02112;11.75117
0.1454;11.75651;0.02091;11.75651
0.1458;11.76198;0.02102;11.76198
0.1459;11.76319;0.02082;11.76319
0.1462;11.76712;0.02092;11.76712
0.1465;11.77217;0.02096;11.77217
0.1468;11.77753;0.02116;11.77753
0.1470;11.78470;0.02124;11.78470
0.1471;11.79081;0.02131;11.79081
0.1476;11.79628;0.02153;11.79628
0.1478;11.80161;0.02160;11.80161
0.1482;11.80673;0.02176;11.80673
0.1484;11.81261;0.02185;11.81261
0.1487;11.81767;0.02212;11.81767
0.1491;11.82298;0.02227;11.82298
0.1496;11.82941;0.02235;11.82941
0.1500;11.83578;0.02261;11.83578
0.1503;11.84142;0.02268;11.84142
0.1505;11.84699;0.02279;11.84699
0.1508;11.85220;0.02279;11.85220
0.1510;11.85851;0.02298;11.85851
0.1517;11.86428;0.02316;11.86428
0.1522;11.86930;0.02323;11.86930
0.1525;11.87444;0.02337;11.87444
0.1528;11.88025;0.02351;11.88025
0.1532;11.88562;0.02383;11.88562
0.1534;11.89166;0.02383;11.89166
0.1535;11.89782;0.02390;11.89782
0.1537;11.90482;0.02406;11.90482
0.1539;11.91056;0.02409;11.91056
0.1543;11.91569;0.02430;11.91569
0.1545;11.92146;0.02452;11.92146
0.1547;11.92658;0.02443;11.92658
0.1550;11.93162;0.02464;11.93162
0.1559;11.93791;0.02496;11.93791
0.1564;11.94363;0.02501;11.94363
0.1568;11.94907;0.02505;11.94907
0.1570;11.95417;0.02514;11.95417
0.1574;11.95918;0.02534;11.95918
0.1579;11.96463;0.02545;11.96463
0.1583;11.96978;0.02560;11.96978
0.1585;11.97489;0.02557;11.97489
0.1588;11.97995;0.02552;11.97995
0.1591;11.98567;0.02548;11.98567
0.1597;11.99170;0.02547;11.99170
0.1602;11.99715;0.02547;11.99715
0.1603;12.00018;0.02537;12.00018
