Part protocol
Network name;Part_Maxymos_1_MP-001_2017-03-14_14-31-25_Sila_bl_trans150obr_tepy_033_OK.csv
Protocol version;3.01.00






Result information
Date;2017/03/14
Time;14:31:25
Cycle number;33
Total result;OK
Triggered switch signals
Part serial number;Sila_bl_trans150obr_tepy_033
Measuring program name;BL_rans
Measuring program number;1
Zero X offset;0.000;mm
Tara Y offset;0;N









Process values - curve related
Block X;10.003;mm;XMIN-X;8.926;mm
Block Y;436;N;XMIN-Y;1;N
Ref X;9.188;mm;XMAX-X;10.003;mm
Peak-peak X;1.077;mm;XMAX-Y;436;N
Peak-peak Y;7673;N;YMIN-X;8.926;mm
;;;YMIN-Y;1;N
;;;YMAX-X;9.461;mm
;;;YMAX-Y;7674;N

Process values - EO related;Result;Entry;Exit;XMIN-X;XMIN-Y;XMAX-X;XMAX-Y;YMIN-Y;YMIN-X;YMAX-Y;YMAX-X;Calculated result;NOK cause;Violation X;Violation Y;Ref X;Ref Y;Switch force;Y-Diff;X-Diff;Force deviation ratio;Click ratio;Contact edge
;;;;mm;N;mm;N;N;mm;N;mm;-;-;-;-;-;-;-;-;-;-;-;-;
EO-01;OK;9.161;;;;;;;;;;;;;;;;
EO-02;OK;;;;;;;;;;;-0.2996;;;;;;
EO-03;OK;;;;;;;;;;;;;;;;;
EO-04;None;
EO-05;None;
EO-06;None;
EO-07;None;
EO-08;None;
EO-09;None;
EO-10;None;


















Evaluation objects settings;Reaction;X reference;Y-Reference;XMin;XMax;YMin;YMax;Entry;Exit;Curve part;Catch zone X;Catch zone Y;EO Name;EO description;Re-entry ignored;Generate statistics;X-Hysteresis;Y-Hysteresis;Down sampling rate;Calc limit min;Calc limit max;Grad limit min;Grad limit max;Hyst limit min;Hyst limit max;Speed limit min;Speed limit max;Time limit min;Time limit max;Is curve inside box;GetRef type;CalcInput1 | dx;CalcInput2 | dx;Calc operation;Average limit min;Average limit max;Break max bending;Visualization offset X;Visualization offset Y;-;-;-
EO-01;LINE-X;ABSOLUTE;ABSOLUTE;8.689;9.496;1000;;BELOW;NONE;ANY;+50%;+0%;;;FALSE;TRUE;0.0;0.0;1;;;;;;;;;;;;;;;;;;;0.000;0;;;
EO-02;CALC;ABSOLUTE;ABSOLUTE;7.603;;4166;;NONE;NONE;ANY;+0%;+0%;;;FALSE;TRUE;0.0;0.0;1;-0.360000;-0.280000;;;;;;;;;;;EO-01 | ENTRY;PV_TABLE_CURVE | YMAX-X;Subtraction;;;;0.000;0;;;
EO-03;NO-PASS;ABSOLUTE;ABSOLUTE;7.653;12.250;8743;;NONE;NONE;ANY;+0%;+0%;;;FALSE;TRUE;0.0;0.0;1;;;;;;;;;;;;;;;;;;;0.000;0;;;
EO-04;OFF
EO-05;OFF
EO-06;OFF
EO-07;OFF
EO-08;OFF
EO-09;OFF
EO-10;OFF



















Switch signal settings;Channel;Threshold at;;Trigger from;Reference;Latch until
Type S1;X;9.860;mm;LEFT;ABSOLUTE;None
Type S2;X;11.480;mm;LEFT;ABSOLUTE;None

















Device information
Device type;maXYmos TL
Device type number;5877A0
Device serial number;4915791
Firmware version;1.1.12 (r21150-TL_v1.1.x)
-
-
-
-
-
IP Address;192.168.21.10
Network name;Maxymos 1
Profibus address;10
-
-
-
Station name;Maxymos 1
Company name;ITW WIP PW
Comment;











Channel-X settings
Use the settings from global setup;True
Sensor-X type;Potentiometer
Unit;mm
Used range from;9.000;mm
Used range to;11.000;mm
Decimal places;XXX.XXX
Scaling by;Teach-In
Point 1;-0.380;mm;16.488;%
Point 2;72.105;mm;72.105;%
Invert signal;FALSE
Filter;OFF
Test point;0.000;mm
Tolerance;0.010;mm
Enable sensor test by dig-input;FALSE
Zoom from;0.000;mm
Zoom to;25.000;mm
Master Measurement Enable;FALSE
Master Measurement Nominal Position;0.000;mm
Encoder interpolation factor;-
Encoder electrical interface;-
Encoder referencing type;-
Encoder referencing edge;-
Encoder pulses per minute;-
Encoder use every nth-mark;-
Reference;-
Encoder reference points;-
Encoder coding;-
Encoder width;-
Encoder optimization;-
Encoder clock frequency;-
Termination resistor;-








Channel-Y settings
Use the settings from global setup;True
Sensor-Y type;Piezo
Unit;N
Used range from;0;N
Used range to;190000;N
Decimal places;XXXXXX
Scaling by;Calibration Sheet
Sensitivity;-4.3000;pC/N
-
Invert signal;FALSE
Filter;OFF
Piezo reset;TRUE
Test point;0;N
Tolerance;0;N
Enable sensor test by dig-input;FALSE
Zoom from;0;N
Zoom to;1000;N












Cycle control settings
Use the settings from global setup;True
Measuring function;Y (X)
Delta-X;User-Defined;0.00100;mm
START condition;Threshold-X;8.700;mm;Trigger from;LEFT
STOP condition;Threshold-X;10.000;mm;Trigger from;LEFT
Cycle time out;0.25;s
Turning point RIGHT;NONE
Turning point LEFT;NONE
Cut curve at;NONE










Evaluation settings
Capture only first NOK-EO for statistics;False
Hysteresis X;0.0;%
Hysteresis Y;0.0;%






Trigger Y settings
Threshold at;1608;N
Value X at TRIGGER Y;0.000;mm
Approach from;BELOW






Block settings
Value X at block;XMAX
Block at;0.000;mm







Measuring curve
Number of measuring points;304
Ref. Graph on;ABSOLUTE
Curve segments;0;304;


Time;X(ABSOLUTE);Y;X (ABSOLUTE)


s;mm;N;mm
0.0000;8.92596;1.22378;8.92596
0.0001;8.93934;2.92965;8.93934
0.0002;8.94299;5.52554;8.94299
0.0002;8.94466;10.82857;8.94466
0.0003;8.95086;17.09579;8.95086
0.0003;8.95429;23.06634;8.95429
0.0004;8.96154;26.70058;8.96154
0.0004;8.96764;28.29520;8.96764
0.0005;8.97132;36.15704;8.97132
0.0005;8.97257;44.72347;8.97257
0.0006;8.97608;50.54568;8.97608
0.0006;8.97737;51.76946;8.97737
0.0007;8.98152;57.88834;8.98152
0.0007;8.98671;64.11848;8.98671
0.0008;8.99007;65.67601;8.99007
0.0008;8.99761;68.97650;8.99761
0.0009;8.99989;72.57366;8.99989
0.0009;9.00449;75.79998;9.00449
0.0010;9.00925;73.64910;9.00925
0.0010;9.01509;76.98668;9.01509
0.0011;9.01979;80.69509;9.01979
0.0011;9.02352;83.58765;9.02352
0.0012;9.02875;88.55693;9.02875
0.0012;9.03182;90.04029;9.03182
0.0012;9.03802;96.53002;9.03802
0.0013;9.03996;97.82796;9.03996
0.0013;9.04673;101.61055;9.04673
0.0014;9.05084;99.23716;9.05084
0.0014;9.05352;101.72180;9.05352
0.0015;9.05660;103.20516;9.05660
0.0015;9.06111;104.57728;9.06111
0.0016;9.06366;104.02102;9.06366
0.0016;9.06644;102.76015;9.06644
0.0017;9.07335;104.57728;9.07335
0.0017;9.07505;103.16808;9.07505
0.0018;9.08026;103.79851;9.08026
0.0018;9.08155;102.50057;9.08155
0.0019;9.08602;104.13227;9.08602
0.0019;9.08910;104.57728;9.08910
0.0020;9.09210;106.02356;9.09210
0.0020;9.09532;107.09900;9.09532
0.0021;9.09772;114.44166;9.09772
0.0021;9.10266;117.37131;9.10266
0.0022;9.10693;123.08226;9.10693
0.0022;9.11137;125.56690;9.11137
0.0023;9.11416;131.72287;9.11416
0.0023;9.12248;140.58598;9.12248
0.0024;9.12759;144.07189;9.12759
0.0024;9.13093;152.11915;9.13093
0.0024;9.13377;154.38128;9.13377
0.0025;9.13724;160.09224;9.13724
0.0025;9.14250;198.47432;9.14250
0.0026;9.14352;274.68223;9.14352
0.0026;9.14845;367.35550;9.14845
0.0027;9.14989;481.72299;9.14989
0.0027;9.15120;613.74253;9.15120
0.0028;9.15362;755.47812;9.15362
0.0028;9.15783;897.62163;9.15783
0.0029;9.16239;1026.85986;9.16239
0.0029;9.16806;1134.47804;9.16806
0.0030;9.17511;1237.86862;9.17511
0.0030;9.17781;1323.23631;9.17781
0.0031;9.18060;1404.33933;9.18060
0.0031;9.18312;1491.56123;9.18312
0.0032;9.18620;1576.89184;9.18620
0.0032;9.18842;1662.33370;9.18842
0.0033;9.19134;1750.26020;9.19134
0.0033;9.19113;1830.69570;9.19113
0.0034;9.19290;1912.57748;9.19290
0.0034;9.19749;1994.83011;9.19749
0.0035;9.19753;2068.25671;9.19753
0.0035;9.20257;2142.35082;9.20257
0.0036;9.20534;2213.18153;9.20534
0.0036;9.20736;2277.55960;9.20736
0.0036;9.20846;2347.64862;9.20846
0.0037;9.21177;2416.10595;9.21177
0.0037;9.21283;2494.68724;9.21283
0.0038;9.21386;2567.63175;9.21386
0.0038;9.21632;2643.09797;9.21632
0.0039;9.21907;2724.46058;9.21907
0.0039;9.22377;2805.45234;9.22377
0.0040;9.22626;2884.55281;9.22626
0.0040;9.22804;2969.92051;9.22804
0.0041;9.23174;3046.57343;9.23174
0.0041;9.23300;3131.57028;9.23300
0.0042;9.23343;3211.89453;9.23343
0.0042;9.23448;3290.47582;9.23448
0.0043;9.23606;3370.05839;9.23606
0.0043;9.23837;3444.67168;9.23837
0.0044;9.23975;3514.46403;9.23975
0.0044;9.24222;3583.36637;9.24222
0.0045;9.24171;3641.73680;9.24171
0.0045;9.24155;3694.35920;9.24155
0.0046;9.24125;3744.49696;9.24125
0.0046;9.24279;3789.51710;9.24279
0.0047;9.24464;3836.91064;9.24464
0.0047;9.24590;3879.18656;9.24590
0.0048;9.24646;3922.83459;9.24646
0.0048;9.24805;3964.44300;9.24805
0.0048;9.25056;4005.86598;9.25056
0.0049;9.24868;4054.81705;9.24868
0.0049;9.25046;4095.31293;9.25046
0.0050;9.24930;4135.95715;9.24930
0.0050;9.25269;4171.07583;9.25269
0.0051;9.25303;4214.94637;9.25303
0.0051;9.25353;4254.10722;9.25353
0.0052;9.25378;4295.56729;9.25378
0.0052;9.25363;4333.80104;9.25363
0.0053;9.25803;4372.66522;9.25803
0.0053;9.25778;4408.34016;9.25778
0.0054;9.26185;4447.01892;9.26185
0.0054;9.26144;4480.02381;9.26144
0.0055;9.26241;4517.44171;9.26241
0.0055;9.26619;4556.97340;9.26619
0.0056;9.26503;4596.87594;9.26503
0.0056;9.26423;4633.58923;9.26423
0.0057;9.26460;4671.19255;9.26460
0.0057;9.26722;4715.21143;9.26722
0.0058;9.26949;4753.14851;9.26949
0.0058;9.27160;4794.79400;9.27160
0.0059;9.27328;4837.44076;9.27328
0.0059;9.27534;4879.49417;9.27534
0.0060;9.27768;4922.73428;9.27768
0.0060;9.27949;4963.74934;9.27949
0.0060;9.28185;5007.36029;9.28185
0.0061;9.28173;5050.45206;9.28173
0.0061;9.28387;5092.39423;9.28387
0.0062;9.28511;5135.56017;9.28511
0.0062;9.28473;5181.02532;9.28473
0.0063;9.28885;5222.52248;9.28885
0.0063;9.29193;5268.17305;9.29193
0.0064;9.29500;5314.30572;9.29500
0.0064;9.29499;5353.87450;9.29499
0.0065;9.29613;5398.85757;9.29613
0.0065;9.29884;5444.69356;9.29884
0.0066;9.30025;5490.08455;9.30025
0.0066;9.30091;5535.03053;9.30091
0.0067;9.30555;5578.86399;9.30555
0.0067;9.30892;5630.04010;9.30892
0.0068;9.31271;5676.43236;9.31271
0.0068;9.31186;5723.97423;9.31186
0.0069;9.31297;5771.51610;9.31297
0.0069;9.31564;5816.98125;9.31564
0.0070;9.31648;5863.29935;9.31648
0.0070;9.31785;5915.29131;9.31785
0.0071;9.31977;5964.27946;9.31977
0.0071;9.32364;6013.52720;9.32364
0.0072;9.32540;6063.10870;9.32540
0.0072;9.32786;6111.28100;9.32786
0.0072;9.32914;6162.42003;9.32914
0.0073;9.32924;6216.93371;9.32924
0.0073;9.33168;6269.29652;9.33168
0.0074;9.33054;6319.21177;9.33054
0.0074;9.33204;6372.42752;9.33204
0.0075;9.33186;6421.45275;9.33186
0.0075;9.33304;6472.88845;9.33304
0.0076;9.33437;6527.92132;9.33437
0.0076;9.33808;6579.57953;9.33808
0.0077;9.33961;6629.04977;9.33961
0.0077;9.34202;6684.67598;9.34202
0.0078;9.34511;6735.51834;9.34511
0.0078;9.34950;6784.43232;9.34950
0.0079;9.35598;6831.56626;9.35598
0.0079;9.35948;6879.03397;9.35948
0.0080;9.36396;6929.57965;9.36396
0.0080;9.36820;6976.60234;9.36820
0.0081;9.37054;7023.10585;9.37054
0.0081;9.37561;7074.76406;9.37561
0.0082;9.37843;7119.26503;9.37843
0.0082;9.38131;7161.87471;9.38131
0.0083;9.38641;7209.15699;9.38641
0.0083;9.39056;7252.02625;9.39056
0.0084;9.39415;7288.29454;9.39415
0.0084;9.39719;7325.30452;9.39719
0.0084;9.39960;7363.35285;9.39960
0.0085;9.39992;7394.61478;9.39992
0.0085;9.40167;7420.16575;9.40167
0.0086;9.40384;7449.64764;9.40384
0.0086;9.40551;7474.16026;9.40551
0.0087;9.40790;7500.23041;9.40790
0.0087;9.41279;7522.36964;9.41279
0.0088;9.41566;7545.06514;9.41566
0.0088;9.41599;7563.82971;9.41599
0.0089;9.41965;7579.73881;9.41965
0.0089;9.42332;7594.12745;9.42332
0.0090;9.42777;7607.14399;9.42777
0.0090;9.43110;7616.48919;9.43110
0.0091;9.43425;7626.05690;9.43425
0.0091;9.43283;7637.96091;9.43283
0.0092;9.43591;7647.49153;9.43591
0.0092;9.43747;7654.12959;9.43747
0.0093;9.44313;7657.02216;9.44313
0.0093;9.44828;7662.17685;9.44828
0.0094;9.45275;7665.62568;9.45275
0.0094;9.45687;7666.66403;9.45687
0.0095;9.46102;7673.89544;9.46102
0.0096;9.46424;7670.26119;9.46424
0.0096;9.46917;7666.36736;9.46917
0.0096;9.47376;7667.25738;9.47376
0.0097;9.47677;7663.88272;9.47677
0.0097;9.47872;7664.40190;9.47872
0.0098;9.47975;7662.95562;9.47975
0.0098;9.48295;7658.95053;9.48295
0.0099;9.48548;7658.24593;9.48548
0.0099;9.48997;7656.35464;9.48997
0.0100;9.49439;7649.86492;9.49439
0.0100;9.50007;7645.34065;9.50007
0.0101;9.50482;7642.78185;9.50482
0.0101;9.50797;7635.66169;9.50797
0.0102;9.50910;7631.91619;9.50910
0.0102;9.51169;7626.05690;9.51169
0.0103;9.51383;7619.60426;9.51383
0.0103;9.51406;7614.37539;9.51406
0.0104;9.51853;7610.03655;9.51853
0.0104;9.52226;7600.20925;9.52226
0.0105;9.52748;7593.60828;9.52748
0.0105;9.53435;7583.33597;9.53435
0.0106;9.53808;7571.91405;9.53808
0.0106;9.54047;7559.52795;9.54047
0.0107;9.54406;7547.40144;9.54406
0.0107;9.54894;7532.53070;9.54894
0.0108;9.55157;7519.88500;9.55157
0.0108;9.55570;7502.56671;9.55570
0.0108;9.55622;7482.83795;9.55622
0.0109;9.55874;7464.22171;9.55874
0.0109;9.56218;7440.33952;9.56218
0.0110;9.56461;7417.75528;9.56461
0.0110;9.57114;7396.61732;9.57114
0.0111;9.57336;7373.92183;9.57336
0.0111;9.57548;7347.33250;9.57548
0.0112;9.57632;7318.40687;9.57632
0.0112;9.57945;7289.74083;9.57945
0.0113;9.58237;7263.63359;9.58237
0.0113;9.58089;7234.52254;9.58089
0.0114;9.58571;7201.85141;9.58571
0.0114;9.58988;7170.21864;9.58988
0.0115;9.59224;7131.02070;9.59224
0.0115;9.59876;7095.23451;9.59876
0.0116;9.60367;7055.44322;9.60367
0.0116;9.60842;7018.09949;9.60842
0.0117;9.62027;6978.12279;9.62027
0.0117;9.62393;6934.77143;9.62393
0.0118;9.62896;6891.86508;9.62896
0.0118;9.63429;6842.65442;9.63429
0.0119;9.63660;6790.92205;9.63660
0.0119;9.64319;6738.59632;9.64319
0.0120;9.65085;6681.37549;9.65085
0.0120;9.65691;6619.74165;9.65691
0.0120;9.65910;6551.50683;9.65910
0.0121;9.66299;6469.95881;9.66299
0.0121;9.66871;6382.66274;9.66871
0.0122;9.67339;6258.46795;9.67339
0.0122;9.67619;6088.47425;9.67619
0.0123;9.67502;5807.33938;9.67502
0.0123;9.67975;5256.26904;9.67975
0.0124;9.68172;4461.66716;9.68172
0.0124;9.68265;4029.04357;9.68265
0.0125;9.68513;3743.97778;9.68513
0.0125;9.69170;3346.17620;9.69170
0.0126;9.69412;3091.63066;9.69412
0.0126;9.69913;2997.02901;9.69913
0.0127;9.70746;2848.54411;9.70746
0.0127;9.71345;2706.10393;9.71345
0.0128;9.72173;2478.59272;9.72173
0.0128;9.72752;2167.53095;9.72752
0.0129;9.73663;1708.46637;9.73663
0.0129;9.74524;1034.16544;9.74524
0.0130;9.75163;679.97481;9.75163
0.0130;9.75631;746.42959;9.75631
0.0131;9.76558;516.69333;9.76558
0.0131;9.77195;384.97047;9.77195
0.0132;9.77566;638.29223;9.77566
0.0132;9.78561;707.52832;9.78561
0.0132;9.79548;793.08144;9.79548
0.0133;9.80628;931.14569;9.80628
0.0133;9.81684;809.21304;9.81684
0.0134;9.82082;741.34906;9.82082
0.0134;9.82166;672.63215;9.82166
0.0135;9.82608;513.24451;9.82608
0.0135;9.83408;530.04363;9.83408
0.0136;9.84703;564.60604;9.84703
0.0136;9.85681;528.44901;9.85681
0.0137;9.86655;639.25642;9.86655
0.0137;9.87673;701.37236;9.87673
0.0138;9.88458;668.21913;9.88458
0.0138;9.89153;684.49907;9.89153
0.0139;9.89512;596.20173;9.89512
0.0139;9.89804;481.98258;9.89804
0.0140;9.90017;449.94188;9.90017
0.0140;9.90389;400.43455;9.90389
0.0141;9.91002;412.44981;9.91002
0.0141;9.91861;478.27416;9.91861
0.0142;9.93477;506.49520;9.93477
0.0142;9.94151;557.04088;9.94151
0.0143;9.95315;607.10447;9.95315
0.0143;9.95872;592.04831;9.95872
0.0144;9.96460;567.79528;9.96460
0.0144;9.97061;529.48736;9.97061
0.0144;9.97568;460.65920;9.97568
0.0145;9.98082;415.82447;9.98082
0.0145;9.98289;401.02790;9.98289
0.0146;9.98687;404.03171;9.98687
0.0146;9.99342;420.23748;9.99342
0.0147;10.00328;436.29492;10.00328
